Packet number,Gyroscope X (deg/s),Gyroscope Y (deg/s),Gyroscope Z (deg/s),Accelerometer X (g),Accelerometer Y (g),Accelerometer Z (g),Magnetometer X (G),Magnetometer Y (G),Magnetometer Z (G)
114,-47.625,-54,44.4375,-0.9072266,0.1875,0.3476563,-0.04638672,-0.4121094,0.1318359
115,-48.5,-60.9375,48.4375,-0.8598633,0.2724609,0.4306641,-0.04638672,-0.4121094,0.1318359
116,-45.1875,-55,43.125,-0.8515625,0.2919922,0.4902344,-0.04638672,-0.4121094,0.1318359
117,-35.6875,-44,35.625,-0.9194336,0.2841797,0.5097656,-0.04638672,-0.4121094,0.1318359
118,-23.5,-32.0625,27.5625,-0.8955078,0.2573242,0.5136719,-0.04638672,-0.4121094,0.1318359
119,-16.5625,-20.5625,19.4375,-0.8876953,0.3037109,0.5019531,-0.04638672,-0.4121094,0.1318359
120,-11.9375,-4.8125,11.4375,-0.855957,0.2802734,0.5258789,-0.04638672,-0.4121094,0.1318359
121,-6.625,14.75,6.5,-0.8237305,0.2612305,0.5532227,-0.04638672,-0.4121094,0.1318359
122,-2.375,31.8125,5.4375,-0.84375,0.2612305,0.5297852,-0.04638672,-0.4121094,0.1318359
123,-4,39.125,6.0625,-0.855957,0.2685547,0.4545898,-0.04638672,-0.4121094,0.1318359
124,-10.4375,36.9375,8,-0.8515625,0.2802734,0.4111328,-0.04638672,-0.4121094,0.1318359
125,-16.4375,28.125,10.125,-0.9116211,0.237793,0.3476563,-0.04638672,-0.4121094,0.1318359
126,-22.4375,16,12.875,-0.9472656,0.2685547,0.3203125,-0.04638672,-0.4121094,0.1318359
127,-28.625,3.125,17,-0.9394531,0.253418,0.3476563,-0.04638672,-0.4121094,0.1318359
128,-32.5,-5.5625,18.625,-0.9233398,0.2573242,0.3833008,-0.04638672,-0.4121094,0.1318359
129,-31.5625,-6.5625,15.625,-0.9233398,0.2802734,0.4780273,-0.04638672,-0.4121094,0.1318359
130,-24.875,-0.8125,10,-0.8876953,0.3110352,0.4863281,-0.04638672,-0.4121094,0.1318359
131,-16.6875,7.8125,5.4375,-0.84375,0.222168,0.4428711,-0.04638672,-0.4121094,0.1318359
132,-9.625,13.0625,5.875,-0.8598633,0.152832,0.4941406,-0.04638672,-0.4121094,0.1318359
133,-1.625,20.8125,11.6875,-0.855957,0.1992188,0.4267578,-0.04638672,-0.4121094,0.1318359
134,-19.875,21.25,21.875,-0.8515625,0.3227539,0.2807617,-0.04638672,-0.4121094,0.1318359
135,-41.8125,-1.0625,27.1875,-0.9033203,0.2841797,0.4824219,-0.04638672,-0.4121094,0.1318359
136,-29.25,-25.5625,32.9375,-0.8916016,0.2841797,0.3476563,-0.04638672,-0.4121094,0.1318359
137,-45.1875,-42.5625,36.0625,-0.8793945,0.2763672,0.371582,-0.04638672,-0.4121094,0.1318359
138,-49.375,-55.75,37.5,-0.8837891,0.2495117,0.3476563,-0.04638672,-0.4121094,0.1318359
139,-53,-67.8125,32.4375,-0.871582,0.3110352,0.3637695,-0.04638672,-0.4121094,0.1318359
140,-59.4375,-78.5625,20.8125,-0.8637695,0.3847656,0.3476563,-0.04638672,-0.4121094,0.1318359
141,-65.25,-88,5.75,-0.9033203,0.3652344,0.4111328,-0.04638672,-0.4121094,0.1318359
142,-65.9375,-93,0.6875,-0.9194336,0.2958984,0.4780273,-0.04638672,-0.4121094,0.1318359
143,-62.25,-91.3125,2.625,-0.8754883,0.253418,0.5058594,-0.04638672,-0.4121094,0.1318359
144,-62.6875,-90.9375,2.375,-0.9550781,0.2651367,0.4824219,-0.04638672,-0.4121094,0.1318359
145,-61.1875,-93.1875,7.1875,-0.9511719,0.1064453,0.5732422,-0.04638672,-0.4121094,0.1318359
146,-59.0625,-99.5625,16.3125,-0.8237305,0.3730469,0.300293,-0.04638672,-0.4121094,0.1318359
147,-85.875,-130.5625,-14.5625,-0.7998047,0.3999023,0.387207,-0.04638672,-0.4121094,0.1318359
148,-93.6875,-154.5625,-13.75,-0.9394531,0.1723633,0.4902344,-0.04638672,-0.4121094,0.1318359
149,-91.5625,-174,-5.375,-0.9472656,0.2070313,0.4663086,-0.04638672,-0.4121094,0.1318359
150,-95.5625,-183.1875,4.0625,-0.8876953,0.07177734,0.6166992,-0.04638672,-0.4121094,0.1318359
151,-89.875,-175.4375,23.625,-0.8837891,-0.004882813,0.7548828,-0.04638672,-0.4121094,0.1318359
152,-84.25,-158.375,48.375,-0.871582,-0.0009765625,0.7709961,-0.04638672,-0.4121094,0.1318359
153,-79.3125,-142.375,66.375,-0.8598633,0.08740234,0.8261719,-0.04638672,-0.4121094,0.1318359
154,-71.875,-126.5625,75.1875,-0.7524414,0.1489258,0.8222656,-0.04638672,-0.4121094,0.1318359
155,-67.9375,-111,77.5625,-0.6806641,0.1914063,0.8022461,-0.04638672,-0.4121094,0.1318359
156,-66.3125,-94.6875,75.3125,-0.6767578,0.1875,0.8457031,-0.04638672,-0.4121094,0.1318359
157,-59,-78.375,74.5,-0.6767578,0.1567383,0.8417969,-0.04638672,-0.4121094,0.1318359
158,-48.4375,-67.125,81.875,-0.6962891,0.04833984,0.7905273,-0.04638672,-0.4121094,0.1318359
159,-41.75,-63.125,96.625,-0.7163086,0.02929688,0.7431641,-0.04638672,-0.4121094,0.1318359
160,-45.375,-65.625,109,-0.7246094,0.152832,0.6679688,-0.04638672,-0.4121094,0.1318359
161,-73,-75.3125,98.625,-0.6923828,0.3110352,0.7983398,-0.04638672,-0.4121094,0.1318359
162,-75.625,-84.0625,84.3125,-0.7402344,0.3613281,0.8100586,-0.04638672,-0.4121094,0.1318359
163,-75.4375,-89.0625,75.375,-0.7480469,0.3188477,0.8300781,-0.04638672,-0.4121094,0.1318359
164,-56.125,-81.5,74.3125,-0.6367188,0.1181641,1.102539,-0.04638672,-0.4121094,0.1318359
165,-67.6875,-65.5625,75.875,-0.8237305,0.3540039,0.7983398,-0.04638672,-0.4121094,0.1318359
166,-76.1875,-76.875,70.4375,-0.9233398,0.3886719,0.6796875,-0.04638672,-0.4121094,0.1318359
167,-82.75,-119.9375,50.3125,-0.7246094,0.496582,0.5454102,-0.04638672,-0.4121094,0.1318359
168,-91.375,-169.5625,22.6875,-0.5849609,0.4853516,0.4741211,-0.04638672,-0.4121094,0.1318359
169,-104.75,-211,-0.25,-0.4853516,0.3730469,0.6245117,-0.04638672,-0.4121094,0.1318359
170,-107.5625,-235,-8.625,-0.3540039,0.237793,0.7866211,-0.04638672,-0.4121094,0.1318359
171,-111.25,-247.6875,-10.6875,-0.4379883,0.2612305,0.8417969,-0.04638672,-0.4121094,0.1318359
172,-107.625,-271.125,-24.5,-0.6328125,0.3808594,0.7587891,-0.04638672,-0.4121094,0.1318359
173,-68.5625,-260.9375,-32.9375,-0.7402344,0.1103516,1.470215,-0.04638672,-0.4121094,0.1318359
174,-7.0625,-162.75,8.5625,-0.4936523,-0.2485352,2.067383,-0.04638672,-0.4121094,0.1318359
175,15.0625,-77.6875,41.25,-0.3862305,0.1875,0.8735352,-0.04638672,-0.4121094,0.1318359
176,-11.6875,-99.5625,30.6875,0.04345703,0.2495117,0.9130859,-0.04638672,-0.4121094,0.1318359
177,-7.1875,-135.6875,45.5,-0.4897461,0.2299805,0.972168,-0.04638672,-0.4121094,0.1318359
179,-30.9375,-136.0625,53.5625,-0.5292969,0.3188477,1.193848,-0.04638672,-0.4121094,0.1318359
180,-64.125,-128.25,63.375,-0.612793,0.1411133,1.146484,-0.04638672,-0.4121094,0.1318359
181,-96.3125,-140.25,86.375,-0.5771484,0.06396484,1.126465,-0.04638672,-0.4121094,0.1318359
182,-91.125,-160.0625,102.8125,-0.5532227,0.06005859,1.197754,-0.04638672,-0.4121094,0.1318359
183,-64.375,-166.1875,122.4375,-0.640625,0.04833984,1.217285,-0.04638672,-0.4121094,0.1318359
184,-34.125,-164.5625,145.4375,-0.5771484,0.02929688,1.304199,-0.04638672,-0.4121094,0.1318359
185,2.375,-164.6875,174.4375,-0.5649414,0.05615234,1.233398,-0.04638672,-0.4121094,0.1318359
186,39.1875,-162.6875,202.5,-0.4775391,0.02929688,1.209473,-0.04638672,-0.4121094,0.1318359
187,78.1875,-158.3125,229.9375,-0.3862305,0.02539063,1.177734,-0.04638672,-0.4121094,0.1318359
188,118,-151.5625,256.375,-0.2944336,-0.0009765625,1.098633,-0.04638672,-0.4121094,0.1318359
189,163.375,-133.4375,285.75,-0.1391602,0.1298828,1.027832,-0.04638672,-0.4121094,0.1318359
190,190.1875,-127.4375,294.8125,-0.09960938,0.1103516,0.9448242,-0.04638672,-0.4121094,0.1318359
191,193.25,-122.0625,296.8125,0.015625,0.203125,0.9448242,-0.04638672,-0.4121094,0.1318359
192,185.3125,-104.5,299.75,0.03125,0.2958984,0.8535156,-0.04638672,-0.4121094,0.1318359
193,174.5625,-96.4375,291.8125,0.1787109,0.3613281,0.9013672,-0.04638672,-0.4121094,0.1318359
194,159.1875,-82.125,279.0625,0.2421875,0.4194336,0.8696289,-0.04638672,-0.4121094,0.1318359
195,143.75,-71.25,262.75,0.2543945,0.3769531,0.8261719,-0.04638672,-0.4121094,0.1318359
196,129.9375,-63.8125,242,0.2739258,0.4038086,0.8144531,-0.04638672,-0.4121094,0.1318359
197,117.375,-56.3125,217.0625,0.2504883,0.3999023,0.8144531,-0.04638672,-0.4121094,0.1318359
198,105.75,-49.1875,191.5625,0.206543,0.3964844,0.8696289,-0.04638672,-0.4121094,0.1318359
199,95.25,-36.375,171.625,0.1826172,0.4389648,0.8774414,-0.04638672,-0.4121094,0.1318359
200,81.875,-31,151.25,0.234375,0.4926758,0.9169922,-0.04638672,-0.4121094,0.1318359
201,70.8125,-30.375,135.1875,0.2543945,0.4926758,0.8535156,-0.04638672,-0.4121094,0.1318359
202,64.25,-28.75,122.4375,0.234375,0.4155273,0.8852539,-0.04638672,-0.4121094,0.1318359
203,64.0625,-30.25,112.75,0.2143555,0.4272461,0.8974609,-0.04638672,-0.4121094,0.1318359
204,61.625,-33.1875,103.25,0.2182617,0.4428711,0.9013672,-0.04638672,-0.4121094,0.1318359
205,58.8125,-33.5625,93.0625,0.1987305,0.4389648,0.9365234,-0.04638672,-0.4121094,0.1318359
206,59.625,-30.6875,83.375,0.1787109,0.4462891,0.9208984,-0.04638672,-0.4121094,0.1318359
207,59.125,-22.5625,70.125,0.2104492,0.4814453,0.9760742,-0.04638672,-0.4121094,0.1318359
208,49.3125,-16,53.1875,0.1787109,0.5585938,0.8696289,-0.04638672,-0.4121094,0.1318359
209,44.625,-8.875,42.1875,0.1586914,0.5043945,1.043457,-0.04638672,-0.4121094,0.1318359
210,42.6875,-1.875,40.9375,0.1586914,0.496582,0.9682617,-0.04638672,-0.4121094,0.1318359
211,60.625,14.6875,61.5,0.1787109,0.5703125,0.8852539,-0.04638672,-0.4121094,0.1318359
212,70.875,5,64.75,0.2783203,0.6435547,0.9169922,-0.04638672,-0.4121094,0.1318359
213,67.3125,0.75,59.6875,0.262207,0.6206055,0.9013672,-0.04638672,-0.4121094,0.1318359
214,61.5,0,56.9375,0.1987305,0.5507813,0.9326172,-0.04638672,-0.4121094,0.1318359
215,62.75,0.625,59,0.2026367,0.5585938,0.9287109,-0.04638672,-0.4121094,0.1318359
216,65.75,1.4375,57.0625,0.2304688,0.5546875,0.9326172,-0.04638672,-0.4121094,0.1318359
217,62.6875,5.375,49.9375,0.2265625,0.5776367,0.9287109,-0.04638672,-0.4121094,0.1318359
218,54.8125,6.9375,42.8125,0.2182617,0.6088867,0.9487305,-0.04638672,-0.4121094,0.1318359
219,46.1875,9.0625,34.75,0.2543945,0.6630859,0.9130859,-0.04638672,-0.4121094,0.1318359
220,31.125,7.5,22.125,0.1987305,0.7285156,0.8100586,-0.04638672,-0.4121094,0.1318359
221,18.1875,4.75,9.875,0.3017578,0.7285156,0.8930664,-0.04638672,-0.4121094,0.1318359
222,9.75,4,2,0.3100586,0.6821289,0.8891602,-0.04638672,-0.4121094,0.1318359
223,4,5.4375,-3.5,0.3017578,0.6474609,0.9013672,-0.04638672,-0.4121094,0.1318359
224,1.4375,3.6875,-8.75,0.2861328,0.6240234,0.9013672,-0.04638672,-0.4121094,0.1318359
225,2.3125,4.4375,-12.125,0.2739258,0.6049805,0.9248047,-0.04638672,-0.4121094,0.1318359
226,2,3.125,-15.0625,0.2583008,0.6166992,0.9091797,-0.04638672,-0.4121094,0.1318359
227,1.6875,5.1875,-17.4375,0.222168,0.581543,0.940918,-0.04638672,-0.4121094,0.1318359
228,2.8125,11.375,-15.5625,0.2026367,0.546875,0.9604492,-0.04638672,-0.4121094,0.1318359
229,9.5625,18,-10.4375,0.1748047,0.5507813,0.9487305,-0.04638672,-0.4121094,0.1318359
230,18.5,20.125,-5.1875,0.1826172,0.5546875,0.9326172,-0.04638672,-0.4121094,0.1318359
231,26,21.9375,-1.75,0.2104492,0.5390625,0.9169922,-0.04638672,-0.4121094,0.1318359
232,28.375,23.3125,0.5625,0.206543,0.5625,0.8735352,-0.04638672,-0.4121094,0.1318359
233,28.4375,32,-3.5,0.4291992,0.6474609,0.9052734,-0.04638672,-0.4121094,0.1318359
234,24.5,32.3125,-10.3125,0.1147461,0.496582,0.7788086,-0.04638672,-0.4121094,0.1318359
235,23.125,24.8125,-6.625,0.1826172,0.6240234,0.9013672,-0.04638672,-0.4121094,0.1318359
236,16.3125,30.9375,-10.6875,0.1987305,0.7246094,0.8618164,-0.04638672,-0.4121094,0.1318359
237,15,37.875,-17.8125,0.2304688,0.6899414,0.8891602,-0.04638672,-0.4121094,0.1318359
238,8,36.375,-26.5625,0.2182617,0.6591797,0.8496094,-0.04638672,-0.4121094,0.1318359
239,3.375,36.25,-31.625,0.1787109,0.6396484,0.8735352,-0.04638672,-0.4121094,0.1318359
240,2.625,37.375,-33,0.2104492,0.6318359,0.8696289,-0.04638672,-0.4121094,0.1318359
241,2.0625,38.4375,-33.625,0.1787109,0.6240234,0.8735352,-0.04638672,-0.4121094,0.1318359
242,1.4375,40.5625,-32.25,0.1704102,0.612793,0.8813477,-0.04638672,-0.4121094,0.1318359
244,3.5625,43.5625,-30.5625,0.1625977,0.5703125,0.9052734,-0.04638672,-0.4121094,0.1318359
245,4.8125,46.625,-28.6875,0.1147461,0.6049805,0.8535156,-0.04638672,-0.4121094,0.1318359
246,5.1875,49.375,-26.4375,0.1748047,0.6279297,0.8535156,-0.04638672,-0.4121094,0.1318359
247,-1.625,45.5625,-23.5625,0.1865234,0.7016602,0.8696289,-0.04638672,-0.4121094,0.1318359
248,-5.0625,43.375,-26.375,0.2026367,0.7016602,0.8579102,-0.04638672,-0.4121094,0.1318359
249,-5.8125,48.625,-25.9375,0.1904297,0.6435547,0.8852539,-0.04638672,-0.4121094,0.1318359
250,-0.3125,50.25,-21.9375,0.1269531,0.6240234,0.8496094,-0.04638672,-0.4121094,0.1318359
251,4.5625,49.875,-21.5625,0.1030273,0.612793,0.8735352,-0.04638672,-0.4121094,0.1318359
252,7.375,44.1875,-24.125,0.09082031,0.6049805,0.8696289,-0.04638672,-0.4121094,0.1318359
253,7.125,39.9375,-25.0625,0.1030273,0.6552734,0.8852539,-0.04638672,-0.4121094,0.1318359
254,8.5,35,-23.4375,0.1069336,0.6665039,0.9526367,-0.04638672,-0.4121094,0.1318359
255,8.1875,34.4375,-21.875,0.1030273,0.6318359,0.8891602,-0.04638672,-0.4121094,0.1318359
256,6.0625,34.25,-17.3125,0.09082031,0.6010742,0.9169922,-0.04638672,-0.4121094,0.1318359
257,7.8125,33.125,-14.875,0.07910156,0.6010742,0.9287109,-0.04638672,-0.4121094,0.1318359
258,8.0625,29.75,-10.1875,0.01953125,0.5507813,0.9208984,-0.04638672,-0.4121094,0.1318359
259,8.5,22.375,-7.0625,0.08691406,0.5390625,0.8696289,-0.04638672,-0.4121094,0.1318359
260,13.75,20.3125,-3.3125,0.04736328,0.5664063,0.9326172,-0.04638672,-0.4121094,0.1318359
261,17.0625,18.25,3,0.06738281,0.5742188,0.8061523,-0.04638672,-0.4121094,0.1318359
262,18.0625,13.8125,8.5,0.04345703,0.6318359,0.8618164,-0.04638672,-0.4121094,0.1318359
263,24,11.6875,12.6875,0.04736328,0.6318359,0.8930664,-0.04638672,-0.4121094,0.1318359
264,31.1875,5,11.3125,0.015625,0.6357422,0.8891602,-0.04638672,-0.4121094,0.1318359
265,33.25,-1,7.5625,0.03955078,0.5893555,0.8061523,-0.04638672,-0.4121094,0.1318359
266,32.75,-2.5,7.125,0.06738281,0.6240234,0.9091797,-0.04638672,-0.4121094,0.1318359
267,40,-1.8125,9,0.06298828,0.6665039,0.8696289,-0.04638672,-0.4121094,0.1318359
268,45.4375,0.875,12.5,0.06738281,0.6552734,0.8735352,-0.04638672,-0.4121094,0.1318359
269,45.625,6.6875,13.5625,0.09082031,0.581543,0.8496094,-0.04638672,-0.4121094,0.1318359
270,59.125,5.0625,15.75,-0.00390625,0.527832,0.8339844,-0.04638672,-0.4121094,0.1318359
271,68.4375,6.125,16.3125,0.08300781,0.581543,0.8535156,-0.04638672,-0.4121094,0.1318359
272,65.5,-4.6875,6.25,0.07128906,0.6049805,0.8261719,-0.04638672,-0.4121094,0.1318359
273,60.25,-14.5,-3.5,0.07910156,0.5854492,0.8144531,-0.04638672,-0.4121094,0.1318359
274,55.3125,-21.6875,-9.0625,0.02734375,0.6240234,0.8417969,-0.04638672,-0.4121094,0.1318359
275,51,-23.8125,-13,0.02734375,0.612793,0.8183594,-0.04638672,-0.4121094,0.1318359
276,48.4375,-23.4375,-15.6875,0.03125,0.6396484,0.8417969,-0.04638672,-0.4121094,0.1318359
277,47.625,-24.125,-16.375,0.03955078,0.6206055,0.8061523,-0.04638672,-0.4121094,0.1318359
278,48.8125,-22.4375,-11.8125,0.04736328,0.6704102,0.8100586,-0.04638672,-0.4121094,0.1318359
279,48.25,-22.3125,-6,0.1069336,0.6899414,0.7983398,-0.04638672,-0.4121094,0.1318359
280,49.0625,-20.4375,-3.5625,0.09912109,0.7480469,0.8183594,-0.04638672,-0.4121094,0.1318359
281,50.5625,-16.75,-0.625,0.1030273,0.7324219,0.7905273,-0.04638672,-0.4121094,0.1318359
282,51.875,-9.6875,0.4375,0.09082031,0.6938477,0.8183594,-0.04638672,-0.4121094,0.1318359
283,55.25,-7.8125,0.25,0.05517578,0.6860352,0.7749023,-0.04638672,-0.4121094,0.1318359
284,56.8125,-5.9375,-0.5,0.05908203,0.7441406,0.7983398,-0.04638672,-0.4121094,0.1318359
285,57.375,-7.9375,-3.0625,0.07910156,0.7592773,0.7075195,-0.04638672,-0.4121094,0.1318359
286,56.5625,-13.0625,-8.375,0.1069336,0.8017578,0.7314453,-0.04638672,-0.4121094,0.1318359
287,51.9375,-18.3125,-16.3125,0.1030273,0.8251953,0.7666016,-0.04638672,-0.4121094,0.1318359
288,44.75,-16.625,-20.75,0.1147461,0.8056641,0.7905273,-0.04638672,-0.4121094,0.1318359
289,42.25,-11.75,-22.25,0.07519531,0.7827148,0.7431641,-0.04638672,-0.4121094,0.1318359
290,39.5,-6.3125,-21.875,0.05517578,0.7519531,0.7788086,-0.04638672,-0.4121094,0.1318359
291,35.5,-7.875,-21.4375,0.09082031,0.7749023,0.7231445,-0.04638672,-0.4121094,0.1318359
292,29.9375,-7.625,-19.5625,0.04736328,0.7866211,0.7392578,-0.04638672,-0.4121094,0.1318359
293,20.1875,-3.6875,-18.9375,0.08691406,0.7905273,0.7392578,-0.04638672,-0.4121094,0.1318359
294,13.6875,-5.125,-14.25,0.1147461,0.7592773,0.7587891,-0.04638672,-0.4121094,0.1318359
295,14.125,0.25,-8.25,0.07128906,0.7788086,0.7270508,-0.04638672,-0.4121094,0.1318359
296,11.1875,3,-3.4375,0.07910156,0.7866211,0.7075195,-0.04638672,-0.4121094,0.1318359
297,14.375,2.875,0.6875,0.07128906,0.8056641,0.6879883,-0.04638672,-0.4121094,0.1318359
298,11.4375,-0.1875,4.5,0.1069336,0.8637695,0.6757813,-0.04638672,-0.4121094,0.1318359
299,6.6875,2.6875,7.125,0.05517578,0.8598633,0.715332,-0.04638672,-0.4121094,0.1318359
300,0.25,6.375,9.9375,0.03515625,0.8291016,0.6918945,-0.04638672,-0.4121094,0.1318359
301,-1.4375,11.5625,10.9375,0.01123047,0.7788086,0.7075195,-0.04638672,-0.4121094,0.1318359
302,-7.8125,15.5625,11.9375,0.04736328,0.7866211,0.6918945,-0.04638672,-0.4121094,0.1318359
303,-6.375,21.0625,11.75,0.09521484,0.8017578,0.7392578,-0.04638672,-0.4121094,0.1318359
304,-5,24.3125,9.875,0.09912109,0.8793945,0.7270508,-0.04638672,-0.4121094,0.1318359
305,-11,29.25,5.75,0.08300781,0.8212891,0.7431641,-0.04638672,-0.4121094,0.1318359
306,-12.75,30.75,2.1875,0.05517578,0.7519531,0.6958008,-0.04638672,-0.4121094,0.1318359
307,-12.0625,29.8125,-0.625,-0.0078125,0.7553711,0.7114258,-0.04638672,-0.4121094,0.1318359
309,-15.8125,30.6875,-1.4375,0.03955078,0.7553711,0.7270508,-0.04638672,-0.4121094,0.1318359
310,-15.1875,31.9375,-3.1875,0.04345703,0.7983398,0.7509766,-0.04638672,-0.4121094,0.1318359
311,-14.625,35.8125,-5.1875,0.02734375,0.7441406,0.7231445,-0.04638672,-0.4121094,0.1318359
312,-10.3125,35.0625,-8.9375,0.03955078,0.7167969,0.7431641,-0.04638672,-0.4121094,0.1318359
313,-8.125,30.4375,-14.125,0.05126953,0.6782227,0.7114258,-0.04638672,-0.4121094,0.1318359
314,-11.0625,23,-16.875,0.07128906,0.6279297,0.6835938,-0.04638672,-0.4121094,0.1318359
315,-7,19.6875,-11.3125,0.04345703,0.6474609,0.7270508,-0.04638672,-0.4121094,0.1318359
316,-5.4375,18.3125,-2.1875,-0.00390625,0.6743164,0.7270508,-0.04638672,-0.4121094,0.1318359
317,-5.375,21.4375,8.125,0.03125,0.6899414,0.7075195,-0.04638672,-0.4121094,0.1318359
318,-6.1875,21.5,18.75,0.02734375,0.6704102,0.7075195,-0.04638672,-0.4121094,0.1318359
319,-3.3125,16.625,26.375,0.03125,0.6899414,0.6918945,-0.04638672,-0.4121094,0.1318359
320,1.625,15.5625,31.125,0.05126953,0.6782227,0.7470703,-0.04638672,-0.4121094,0.1318359
321,2.125,12.5,30,0.06738281,0.6938477,0.7353516,-0.04638672,-0.4121094,0.1318359
322,-1.875,14.0625,24.1875,0.07128906,0.7094727,0.7075195,-0.04638672,-0.4121094,0.1318359
323,-3.1875,16.75,16.9375,0.04736328,0.7749023,0.7470703,-0.04638672,-0.4121094,0.1318359
324,-4.4375,17.0625,11.6875,0.08300781,0.7944336,0.7270508,-0.04638672,-0.4121094,0.1318359
325,-3.0625,16,11.875,0.06738281,0.7905273,0.7270508,-0.04638672,-0.4121094,0.1318359
326,-0.3125,13.1875,16.9375,0.01953125,0.7285156,0.699707,-0.04638672,-0.4121094,0.1318359
327,-1.6875,14.75,22.3125,0.007324219,0.7553711,0.7270508,-0.04638672,-0.4121094,0.1318359
328,-1.9375,13.0625,27.875,-0.04003906,0.6630859,0.7231445,-0.04638672,-0.4121094,0.1318359
329,0.3125,10.75,33.5625,0.01953125,0.6474609,0.7431641,-0.04638672,-0.4121094,0.1318359
330,5.5,6.1875,37.875,0.007324219,0.6782227,0.7270508,-0.04638672,-0.4121094,0.1318359
331,5.6875,5.0625,39.625,0,0.7207031,0.7353516,-0.04638672,-0.4121094,0.1318359
332,2.625,8.125,41.6875,-0.01171875,0.7631836,0.7392578,-0.04638672,-0.4121094,0.1318359
333,0,6.375,40.5,0.06738281,0.8291016,0.7353516,-0.04638672,-0.4121094,0.1318359
334,0.0625,5.0625,36.0625,0.05517578,0.8251953,0.7431641,-0.04638672,-0.4121094,0.1318359
335,1.0625,1.3125,28.9375,0.06298828,0.7553711,0.715332,-0.04638672,-0.4121094,0.1318359
336,5.25,-4,23.625,0.07910156,0.8134766,0.7231445,-0.04638672,-0.4121094,0.1318359
337,8.6875,-6.9375,15.625,0.1030273,0.7709961,0.7431641,-0.04638672,-0.4121094,0.1318359
338,12.9375,-7.9375,11.0625,0.06298828,0.7207031,0.7905273,-0.04638672,-0.4121094,0.1318359
339,17.6875,-5.5625,11,0.06298828,0.7553711,0.7587891,-0.04638672,-0.4121094,0.1318359
340,18.1875,-3.8125,11.125,0.1108398,0.7749023,0.7626953,-0.04638672,-0.4121094,0.1318359
341,18.375,-3.25,12.75,0.06738281,0.7983398,0.7192383,-0.04638672,-0.4121094,0.1318359
342,19.5625,-0.4375,15.125,0.07128906,0.8056641,0.7509766,-0.04638672,-0.4121094,0.1318359
343,21.6875,3.75,17.4375,0.0234375,0.7285156,0.7353516,-0.04638672,-0.4121094,0.1318359
344,25,4.8125,17.125,0.03125,0.7866211,0.7431641,-0.04638672,-0.4121094,0.1318359
345,24.5,9.5625,13.125,0.1147461,0.7866211,0.7666016,-0.04638672,-0.4121094,0.1318359
346,20.9375,14.125,5.625,0.2026367,0.8369141,0.7270508,-0.04638672,-0.4121094,0.1318359
347,12.375,9.6875,-3.9375,0.1787109,0.8017578,0.7231445,-0.04638672,-0.4121094,0.1318359
348,1.6875,8.5,-7.5625,0.1865234,0.8212891,0.7270508,-0.04638672,-0.4121094,0.1318359
349,-4.375,7.25,-6.5,0.1469727,0.7670898,0.7626953,-0.04638672,-0.4121094,0.1318359
350,-8.125,9.625,-0.5,0.07128906,0.8251953,0.7314453,-0.04638672,-0.4121094,0.1318359
351,-11.625,13.5625,7.9375,0.1030273,0.8017578,0.7270508,-0.04638672,-0.4121094,0.1318359
352,-9.375,20.125,12.125,0.05126953,0.7983398,0.6835938,-0.04638672,-0.4121094,0.1318359
353,-12.375,12.9375,16.3125,0.1191406,0.7363281,0.7666016,-0.04638672,-0.4121094,0.1318359
354,-7.125,12.5625,20.0625,0.1108398,0.8134766,0.7709961,-0.04638672,-0.4121094,0.1318359
355,-6.25,18.125,20.4375,0.05517578,0.7553711,0.7587891,-0.04638672,-0.4121094,0.1318359
356,-0.25,14.875,22.625,0.07519531,0.7246094,0.7788086,-0.04638672,-0.4121094,0.1318359
357,7.625,11.6875,27.125,0.04736328,0.7167969,0.7626953,-0.04638672,-0.4121094,0.1318359
358,12.375,12.125,34,0.04345703,0.7480469,0.7470703,-0.04638672,-0.4121094,0.1318359
359,14.0625,13.0625,39.875,0.04736328,0.7788086,0.7353516,-0.04638672,-0.4121094,0.1318359
360,12.6875,14.625,41.6875,0.1586914,0.8134766,0.7036133,-0.04638672,-0.4121094,0.1318359
361,11.0625,7.375,34,0.1547852,0.8134766,0.7548828,-0.04638672,-0.4121094,0.1318359
362,8.4375,4.125,29.8125,0.1147461,0.7905273,0.7626953,-0.04638672,-0.4121094,0.1318359
363,8.625,5.8125,23.0625,0.1191406,0.7285156,0.715332,-0.04638672,-0.4121094,0.1318359
364,9.0625,5.0625,17.0625,0.1069336,0.7167969,0.7548828,-0.04638672,-0.4121094,0.1318359
365,5.375,5.125,11.8125,0.1230469,0.7592773,0.7353516,-0.04638672,-0.4121094,0.1318359
366,1.625,3.625,8.3125,0.1547852,0.7827148,0.7036133,-0.04638672,-0.4121094,0.1318359
367,0.375,0.625,8.0625,0.1069336,0.7709961,0.7231445,-0.04638672,-0.4121094,0.1318359
368,1.3125,-0.125,9.9375,0.08300781,0.7207031,0.7666016,-0.04638672,-0.4121094,0.1318359
369,2.1875,0.6875,13.3125,0.08300781,0.7402344,0.7431641,-0.04638672,-0.4121094,0.1318359
370,2.4375,2.6875,13.625,0.1308594,0.7670898,0.7036133,-0.04638672,-0.4121094,0.1318359
371,3.8125,2.625,12.8125,0.1508789,0.7788086,0.6796875,-0.04638672,-0.4121094,0.1318359
372,4.625,2.0625,9.6875,0.1386719,0.8369141,0.7587891,-0.04638672,-0.4121094,0.1318359
374,4.3125,3.4375,4.8125,0.1625977,0.8442383,0.699707,-0.04638672,-0.4121094,0.1318359
375,0.875,4.5625,-2.6875,0.1508789,0.8481445,0.7114258,-0.04638672,-0.4121094,0.1318359
376,-4.125,4.75,-10.6875,0.1386719,0.8754883,0.6523438,-0.04638672,-0.4121094,0.1318359
377,-7.5,1.8125,-20.5,0.1269531,0.9370117,0.7314453,-0.04638672,-0.4121094,0.1318359
378,-4.0625,-11.3125,-27.5,0.1069336,0.8833008,0.7392578,-0.04638672,-0.4121094,0.1318359
379,3.5625,-26.25,-35.5,0.01953125,0.855957,0.7231445,-0.04638672,-0.4121094,0.1318359
380,10.3125,-34.25,-47.8125,-0.02783203,0.8017578,0.7827148,-0.04638672,-0.4121094,0.1318359
381,13.125,-41.25,-60.3125,-0.04785156,0.7167969,0.7270508,-0.04638672,-0.4121094,0.1318359
382,24.3125,-40.375,-65.0625,-0.02392578,0.6435547,0.699707,-0.04638672,-0.4121094,0.1318359
383,25.1875,-45.8125,-65.0625,0.05517578,0.6513672,0.7431641,-0.04638672,-0.4121094,0.1318359
384,33.4375,-48.4375,-49.4375,0.2304688,0.7631836,0.6601563,-0.04638672,-0.4121094,0.1318359
385,40.6875,-40.8125,-36,0.1586914,0.7788086,0.6640625,-0.04638672,-0.4121094,0.1318359
386,44,-35.25,-16.625,0.2783203,0.7324219,0.6523438,-0.04638672,-0.4121094,0.1318359
387,48.25,-25.8125,-2.0625,0.206543,0.8173828,0.6679688,-0.04638672,-0.4121094,0.1318359
388,56.1875,-15.5,15.4375,0.1987305,0.871582,0.6918945,-0.04638672,-0.4121094,0.1318359
389,68.3125,3.3125,36.75,0.2583008,0.9682617,0.6362305,-0.04638672,-0.4121094,0.1318359
390,75,8.4375,33.5625,-0.1352539,0.9179688,0.8852539,-0.04638672,-0.4121094,0.1318359
391,72.75,51.25,37.375,0.2421875,1.145996,0.6835938,-0.04638672,-0.4121094,0.1318359
392,77.8125,51.5625,22.8125,0.1508789,0.9833984,0.6523438,-0.04638672,-0.4121094,0.1318359
393,91.875,55,20.4375,0.09912109,0.940918,0.699707,-0.04638672,-0.4121094,0.1318359
394,105,66.6875,18.9375,0.08300781,0.9179688,0.699707,-0.04638672,-0.4121094,0.1318359
395,133.5,72.375,21.375,0.1030273,0.9448242,0.6401367,-0.04638672,-0.4121094,0.1318359
396,158.375,79.375,17.5625,0.1826172,0.9296875,0.5571289,-0.04638672,-0.4121094,0.1318359
397,163.1875,72.5625,16.1875,0.2026367,0.8598633,0.5136719,-0.04638672,-0.4121094,0.1318359
398,162.8125,64.125,12.25,0.1508789,0.7905273,0.5415039,-0.04638672,-0.4121094,0.1318359
399,161.9375,53.75,8.75,0.08691406,0.7788086,0.5493164,-0.04638672,-0.4121094,0.1318359
400,171.5,40.5625,11.5,0.01953125,0.7055664,0.5258789,-0.04638672,-0.4121094,0.1318359
401,198.75,28.75,20.8125,0.04736328,0.6743164,0.4306641,-0.04638672,-0.4121094,0.1318359
402,188.875,27,31.0625,0.007324219,0.8173828,0.5732422,-0.04638672,-0.4121094,0.1318359
403,188.5625,11.75,40.8125,0.07519531,0.7207031,0.3994141,-0.04638672,-0.4121094,0.1318359
404,182.0625,-0.9375,47.25,0.08691406,0.6474609,0.3994141,-0.04638672,-0.4121094,0.1318359
405,188.1875,-11.625,56.625,0.03515625,0.5742188,0.3833008,-0.04638672,-0.4121094,0.1318359
406,177.875,-21.625,78.1875,0.1469727,0.7983398,0.2924805,-0.04638672,-0.4121094,0.1318359
407,168.75,-43.3125,62.875,0.2265625,0.9257813,0.1660156,-0.04638672,-0.4121094,0.1318359
408,160.1875,-90.875,34.75,0.06738281,0.8251953,0.1938477,-0.04638672,-0.4121094,0.1318359
409,176.3125,-138.3125,13.5,0.07910156,0.6552734,0.1777344,-0.04638672,-0.4121094,0.1318359
410,203.875,-163.4375,43.25,-0.2548828,0.2685547,0.7431641,-0.04638672,-0.4121094,0.1318359
411,225.0625,-57.625,107.625,-0.01611328,0.3613281,0.5219727,-0.04638672,-0.4121094,0.1318359
412,170.8125,-15.0625,114.875,0.1508789,1.342773,0.2294922,-0.04638672,-0.4121094,0.1318359
413,2.9375,38.4375,61.0625,0.1704102,1.064941,0.4306641,-0.04638672,-0.4121094,0.1318359
414,-53,80.5,27.1875,0.6044922,1.586426,0.34375,-0.04638672,-0.4121094,0.1318359
415,-81.875,95.9375,-19.8125,0.628418,1.493652,0.1464844,-0.04638672,-0.4121094,0.1318359
416,-54.8125,89.5,-57.5625,0.5048828,1.431641,0.4033203,-0.04638672,-0.4121094,0.1318359
417,56.9375,68.625,-83.75,0.4692383,1.04541,0.3041992,-0.04638672,-0.4121094,0.1318359
418,190.5625,6.8125,-91.1875,0.262207,0.9526367,-0.09033203,-0.04638672,-0.4121094,0.1318359
419,238.875,-72.0625,-86.8125,0.1943359,1.118652,-0.4975586,-0.04638672,-0.4121094,0.1318359
420,243.375,-133.625,-73.625,0.04736328,0.9101563,-0.347168,-0.04638672,-0.4121094,0.1318359
421,265.875,-152.5,-50.5625,0.06738281,0.8408203,-0.2524414,-0.04638672,-0.4121094,0.1318359
422,295.25,-163.5,-21.5625,-0.1430664,0.6743164,-0.2285156,-0.04638672,-0.4121094,0.1318359
423,300.625,-194.875,30.0625,-0.2426758,0.4311523,-0.4301758,-0.04638672,-0.4121094,0.1318359
424,261.125,-212.8125,75.125,-0.3027344,0.6049805,-0.4223633,-0.04638672,-0.4121094,0.1318359
425,190.75,-200.1875,103.1875,-0.3461914,0.7441406,-0.2285156,-0.04638672,-0.4121094,0.1318359
426,101.6875,-166.625,113,-0.2387695,0.8481445,-0.02734375,-0.04638672,-0.4121094,0.1318359
427,13.625,-102.9375,116.5625,0.6879883,1.227051,1.45459,-0.04638672,-0.4121094,0.1318359
428,-64.1875,16.4375,55.625,0.3735352,1.536133,-0.1064453,-0.04638672,-0.4121094,0.1318359
429,-96.25,14.5,20.625,0.5727539,1.288574,0.09472656,-0.04638672,-0.4121094,0.1318359
430,-21.0625,49.625,40.1875,0.9150391,1.559082,-0.09423828,-0.04638672,-0.4121094,0.1318359
431,-12.0625,41.25,17.3125,0.465332,1.319824,-0.07080078,-0.04638672,-0.4121094,0.1318359
432,-97.875,71,13.4375,0.2382813,0.7207031,-0.05859375,-0.04638672,-0.4121094,0.1318359
433,-104.375,88.6875,52.625,0.08300781,0.581543,0.1381836,-0.04638672,-0.4121094,0.1318359
434,-48.8125,74.625,82.5625,0.1904297,0.6899414,0.1342773,-0.04638672,-0.4121094,0.1318359
435,57.75,31.0625,89,0.1826172,0.7016602,0.08300781,-0.04638672,-0.4121094,0.1318359
436,168.375,20.125,107.3125,0.1943359,0.9794922,0.1899414,-0.04638672,-0.4121094,0.1318359
437,195.9375,36.125,103.75,0.1586914,0.9873047,-0.01123047,-0.04638672,-0.4121094,0.1318359
439,194.25,37,102.1875,0.1625977,0.9448242,-0.0234375,-0.04638672,-0.4121094,0.1318359
440,210.6875,38.4375,96.4375,0.222168,1.037598,-0.01123047,-0.04638672,-0.4121094,0.1318359
441,206.4375,39.625,79.75,0.2822266,0.9682617,-0.1298828,-0.04638672,-0.4121094,0.1318359
442,196.8125,35.8125,74.25,0.3178711,0.9257813,-0.2050781,-0.04638672,-0.4121094,0.1318359
443,179.5625,30.625,62.75,0.3696289,0.9023438,-0.2802734,-0.04638672,-0.4121094,0.1318359
444,152.625,22,47.1875,0.4174805,0.9023438,-0.2919922,-0.04638672,-0.4121094,0.1318359
445,98,11.0625,31.375,0.2861328,0.6630859,-0.331543,-0.04638672,-0.4121094,0.1318359
446,57.25,-2.8125,22.25,0.4692383,0.7905273,-0.2998047,-0.04638672,-0.4121094,0.1318359
447,7.1875,-5.1875,-6,0.3657227,0.8833008,-0.2050781,-0.04638672,-0.4121094,0.1318359
448,-17.125,-8.875,-9.4375,0.2861328,0.8369141,-0.1416016,-0.04638672,-0.4121094,0.1318359
449,-26.1875,-6.5,-7.3125,0.2783203,0.8173828,-0.1850586,-0.04638672,-0.4121094,0.1318359
450,-16.75,4.4375,3.3125,0.2978516,0.8598633,-0.1103516,-0.04638672,-0.4121094,0.1318359
451,6.75,19.3125,15.4375,0.2822266,0.8056641,-0.07470703,-0.04638672,-0.4121094,0.1318359
452,34.25,33.4375,28.8125,0.3100586,0.7866211,-0.1142578,-0.04638672,-0.4121094,0.1318359
453,50.5625,44.0625,37.0625,0.3300781,0.7905273,-0.1538086,-0.04638672,-0.4121094,0.1318359
454,49.8125,50.25,41.375,0.409668,0.8056641,-0.2602539,-0.04638672,-0.4121094,0.1318359
455,40.25,50.3125,38.1875,0.4213867,0.7827148,-0.315918,-0.04638672,-0.4121094,0.1318359
456,27.0625,48.5,34.75,0.4174805,0.8134766,-0.3115234,-0.04638672,-0.4121094,0.1318359
457,15.8125,44.625,30.9375,0.4013672,0.8442383,-0.2763672,-0.04638672,-0.4121094,0.1318359
458,4.625,42.125,27.5,0.3974609,0.8833008,-0.2802734,-0.04638672,-0.4121094,0.1318359
459,-5.625,39.9375,23.375,0.3696289,0.871582,-0.2841797,-0.04638672,-0.4121094,0.1318359
460,-15.25,38.5625,20.75,0.3735352,0.871582,-0.2919922,-0.04638672,-0.4121094,0.1318359
461,-23.0625,38.3125,19.75,0.4013672,0.8793945,-0.2485352,-0.04638672,-0.4121094,0.1318359
462,-25.5625,37.1875,19.8125,0.3857422,0.8481445,-0.2485352,-0.04638672,-0.4121094,0.1318359
463,-27.25,35.25,19.5,0.3774414,0.90625,-0.2011719,-0.04638672,-0.4121094,0.1318359
464,-31.0625,32.0625,17.375,0.3735352,0.8598633,-0.2563477,-0.04638672,-0.4121094,0.1318359
465,-38.6875,28.8125,15.75,0.4013672,0.887207,-0.2285156,-0.04638672,-0.4121094,0.1318359
466,-48.25,26.6875,12.75,0.3657227,0.8945313,-0.2368164,-0.04638672,-0.4121094,0.1318359
467,-53,24.5625,5.875,0.3696289,0.887207,-0.2050781,-0.04638672,-0.4121094,0.1318359
468,-52.4375,19.875,-2.3125,0.3896484,0.8793945,-0.1933594,-0.04638672,-0.4121094,0.1318359
469,-46.8125,16.5625,-5.3125,0.3774414,0.8520508,-0.1616211,-0.04638672,-0.4121094,0.1318359
470,-15.6875,-17.4375,9.1875,0.4013672,0.581543,-0.2763672,-0.04638672,-0.4121094,0.1318359
471,-0.75,-0.125,20.5625,0.3935547,0.7519531,-0.05859375,-0.04638672,-0.4121094,0.1318359
472,7.5625,-14.3125,29.5,0.3339844,0.6782227,-0.1894531,-0.04638672,-0.4121094,0.1318359
473,1.875,-8.9375,40.75,0.2661133,0.6206055,-0.1616211,-0.04638672,-0.4121094,0.1318359
474,11.875,-18.375,69.8125,0.3139648,0.6474609,-0.2407227,-0.04638672,-0.4121094,0.1318359
475,3.75,-20.125,73.5,0.3618164,0.7905273,-0.2167969,-0.04638672,-0.4121094,0.1318359
476,-3.875,-35.5,73.6875,0.465332,1.068359,-0.2563477,-0.04638672,-0.4121094,0.1318359
477,-33.9375,-26.4375,52.4375,0.4331055,0.90625,-0.2050781,-0.04638672,-0.4121094,0.1318359
478,-37.875,-23.5625,41.5625,0.4492188,1.021973,-0.07861328,-0.04638672,-0.4121094,0.1318359
479,-29.1875,-15.25,32.9375,0.5449219,1.18457,-0.3945313,-0.04638672,-0.4121094,0.1318359
480,-44.4375,-6.9375,14.75,0.6762695,1.14209,-0.1181641,-0.04638672,-0.4121094,0.1318359
481,-45.5,3.1875,-3.625,0.5488281,0.9833984,-0.2207031,-0.04638672,-0.4121094,0.1318359
482,-46.0625,11.1875,-20.9375,0.6958008,0.9794922,-0.1298828,-0.04638672,-0.4121094,0.1318359
483,-59.5,8.25,-25.625,0.5009766,0.7519531,-0.1694336,-0.04638672,-0.4121094,0.1318359
484,-57.3125,4.375,-9.875,0.4931641,0.7402344,-0.2485352,-0.04638672,-0.4121094,0.1318359
485,-51.625,1.8125,2.125,0.3735352,0.8095703,-0.1655273,-0.04638672,-0.4121094,0.1318359
486,-53.125,7.125,-11.5625,0.6245117,0.9296875,-0.2641602,-0.04638672,-0.4121094,0.1318359
487,-61.1875,13.5,-18.6875,0.409668,0.8481445,-0.2563477,-0.04638672,-0.4121094,0.1318359
488,-45.75,7.375,-4.25,0.4570313,0.90625,-0.01513672,-0.04638672,-0.4121094,0.1318359
489,-14.9375,12,4.1875,0.4848633,0.9990234,-0.1142578,-0.04638672,-0.4121094,0.1318359
490,-4.25,11.75,3.8125,0.4614258,0.8442383,-0.1694336,-0.04638672,-0.4121094,0.1318359
491,-4.6875,13.25,8.4375,0.4453125,0.7983398,-0.1772461,-0.04638672,-0.4121094,0.1318359
492,-15.6875,25.1875,16.375,-0.1274414,0.6240234,-0.2167969,-0.04638672,-0.4121094,0.1318359
493,-79.9375,65,40.5625,0.2939453,0.6318359,-0.2880859,-0.04638672,-0.4121094,0.1318359
494,-91.625,61,57.4375,0.1625977,0.4658203,-0.1259766,-0.04638672,-0.4121094,0.1318359
495,-87.625,59.3125,65.9375,0.453125,0.6513672,-0.07080078,-0.04638672,-0.4121094,0.1318359
496,-71.4375,49.5625,75.9375,0.5009766,0.8369141,-0.1298828,-0.04638672,-0.4121094,0.1318359
497,-57.6875,38.625,76.4375,0.5366211,0.940918,-0.07470703,-0.04638672,-0.4121094,0.1318359
498,-61.8125,20.1875,67.6875,0.65625,1.080078,-0.06298828,-0.04638672,-0.4121094,0.1318359
499,-57.125,7.5,46.1875,0.6401367,1.064941,0.1186523,-0.04638672,-0.4121094,0.1318359
500,-47.375,8.5625,23.5625,0.6083984,1.037598,0.1660156,-0.04638672,-0.4121094,0.1318359
501,-35.5,13.25,2.375,0.6044922,1.061035,0.03564453,-0.04638672,-0.4121094,0.1318359
502,38.9375,-26.625,-37,0.9785156,1.176758,0.3994141,-0.04638672,-0.4121094,0.1318359
504,99.5,-63.8125,-63.5,0.6679688,1.103516,-0.06689453,-0.04638672,-0.4121094,0.1318359
505,50.5625,-33.3125,-69.375,0.4492188,0.6630859,0.06347656,-0.04638672,-0.4121094,0.1318359
506,26.5,-19.5,-39.5,0.4731445,0.5390625,-0.08642578,-0.04638672,-0.4121094,0.1318359
507,2.0625,-19.6875,-14.6875,0.4614258,0.597168,-0.07861328,-0.04638672,-0.4121094,0.1318359
508,-1.625,-16.9375,-1.1875,0.5048828,0.7167969,-0.04296875,-0.04638672,-0.4121094,0.1318359
509,-3.3125,-5,1.875,0.5009766,0.8056641,-0.01513672,-0.04638672,-0.4121094,0.1318359
510,-3.5,-2.125,4.625,0.5327148,0.8173828,-0.09423828,-0.04638672,-0.4121094,0.1318359
511,-6.0625,1.1875,10.9375,0.4931641,0.7631836,-0.01513672,-0.04638672,-0.4121094,0.1318359
512,-11.5625,5.1875,14.8125,0.480957,0.8442383,-0.1259766,-0.04638672,-0.4121094,0.1318359
513,-20.25,2.1875,20.75,0.5131836,0.9101563,0,-0.04638672,-0.4121094,0.1318359
514,-17.6875,4.75,15.6875,0.3696289,0.8520508,-0.07080078,-0.04638672,-0.4121094,0.1318359
515,-10.125,-8.5625,21,0.3178711,0.7631836,-0.09423828,-0.04638672,-0.4121094,0.1318359
516,17.75,-31.625,31.3125,0.4052734,0.7519531,-0.01513672,-0.04638672,-0.4121094,0.1318359
517,11.625,-18.9375,26.9375,0.5688477,0.9604492,0.07519531,-0.04638672,-0.4121094,0.1318359
518,2.3125,-5.5,11.375,0.4848633,1.076172,-0.007324219,-0.04638672,-0.4121094,0.1318359
519,-8.625,4.25,-8.1875,0.465332,0.8793945,-0.06689453,-0.04638672,-0.4121094,0.1318359
520,-17,8.5,-4,0.4970703,0.7788086,-0.06298828,-0.04638672,-0.4121094,0.1318359
521,-28.25,13.1875,-1.8125,0.4291992,0.8369141,-0.0390625,-0.04638672,-0.4121094,0.1318359
522,-40.8125,21.5625,-2.875,0.4892578,0.8330078,0.02783203,-0.04638672,-0.4121094,0.1318359
523,-53.25,27.75,-2.1875,0.4892578,0.8212891,-0.03125,-0.04638672,-0.4121094,0.1318359
524,-56.875,31.375,0.5625,0.4570313,0.8676758,-0.09033203,-0.04638672,-0.4121094,0.1318359
525,-59.5,33.875,3.9375,0.4770508,0.9296875,-0.01123047,-0.04638672,-0.4121094,0.1318359
526,-52.75,34.25,10.5625,0.5249023,1.00293,0.1108398,-0.04638672,-0.4121094,0.1318359
527,-1.5625,29.9375,30,0.4291992,1.057129,0.1147461,-0.04638672,-0.4121094,0.1318359
528,9.625,17,26.3125,0.3657227,0.9448242,-0.06689453,-0.04638672,-0.4121094,0.1318359
529,15.8125,10.4375,26.25,0.4453125,0.9448242,0,-0.04638672,-0.4121094,0.1318359
530,23.5,3.25,23.6875,0.4892578,0.8598633,-0.05078125,-0.04638672,-0.4121094,0.1318359
531,29.3125,0.4375,18.75,0.5883789,0.8481445,-0.01123047,-0.04638672,-0.4121094,0.1318359
532,30.6875,1,9,0.6044922,0.8520508,-0.08642578,-0.04638672,-0.4121094,0.1318359
533,15.5,4.25,3.5625,0.5927734,0.8676758,-0.08642578,-0.04638672,-0.4121094,0.1318359
534,-6,7.0625,-6.875,0.6362305,0.855957,-0.1499023,-0.04638672,-0.4121094,0.1318359
535,-19.375,5.0625,-25.25,0.6245117,0.7827148,-0.1811523,-0.04638672,-0.4121094,0.1318359
536,-35,9,-41.3125,0.6245117,0.855957,-0.1259766,-0.04638672,-0.4121094,0.1318359
537,-47.75,12.3125,-46.25,0.5566406,0.8442383,-0.1142578,-0.04638672,-0.4121094,0.1318359
538,-65.0625,10.3125,-44.8125,0.5410156,0.8754883,-0.0546875,-0.04638672,-0.4121094,0.1318359
539,-79.6875,9,-37.8125,0.5009766,0.8676758,0.015625,-0.04638672,-0.4121094,0.1318359
540,-82.1875,9.25,-30.125,0.453125,0.8442383,0.03173828,-0.04638672,-0.4121094,0.1318359
541,-81.5625,12.4375,-20.125,0.5009766,0.8442383,0.09472656,-0.04638672,-0.4121094,0.1318359
542,-76,14.25,-11.8125,0.4931641,0.8173828,0.1420898,-0.04638672,-0.4121094,0.1318359
543,-62.8125,20.0625,-5.1875,0.4614258,0.8251953,0.1777344,-0.04638672,-0.4121094,0.1318359
544,-44.25,22.625,0.5,0.4052734,0.8833008,0.1621094,-0.04638672,-0.4121094,0.1318359
545,-30.9375,24.5,1.8125,0.3735352,0.7905273,0.1342773,-0.04638672,-0.4121094,0.1318359
546,-25.875,23.1875,1.5,0.3774414,0.8481445,0.09863281,-0.04638672,-0.4121094,0.1318359
547,-27.75,13.625,2.75,0.3818359,0.8520508,0.1582031,-0.04638672,-0.4121094,0.1318359
548,-27.375,9.9375,-3.9375,0.4135742,0.8212891,0.1582031,-0.04638672,-0.4121094,0.1318359
549,-15.5625,2.4375,-10.75,0.3935547,0.8173828,0.1464844,-0.04638672,-0.4121094,0.1318359
550,5.1875,-14.8125,-6.6875,-3.812988,0.4658203,-0.3432617,-0.04638672,-0.4121094,0.1318359
551,9.4375,-56.75,-12.8125,1.165527,1.366211,1.537598,-0.04638672,-0.4121094,0.1318359
552,-8.5625,-18.5625,-62.25,0.5170898,0.7749023,-0.2011719,-0.04638672,-0.4121094,0.1318359
553,-28.625,-15.25,-51.8125,0.6801758,0.5429688,0.04345703,-0.04638672,-0.4121094,0.1318359
554,-31.25,-16.375,-36.8125,0.4848633,0.7167969,-0.003417969,-0.04638672,-0.4121094,0.1318359
555,-22.125,-14.3125,-42.1875,0.5288086,0.7866211,0.1186523,-0.04638672,-0.4121094,0.1318359
556,-28.375,-11.1875,-49.125,0.5410156,0.7983398,0.03173828,-0.04638672,-0.4121094,0.1318359
557,-38.3125,-5.875,-47.1875,0.5131836,0.8056641,0.03173828,-0.04638672,-0.4121094,0.1318359
558,-35.875,-1.875,-34.8125,0.3896484,0.8945313,0.08691406,-0.04638672,-0.4121094,0.1318359
559,-10.375,-5.3125,-13.375,0.3378906,1.00293,0.2172852,-0.04638672,-0.4121094,0.1318359
560,16.375,-8.125,-2.5,0.3378906,1.064941,0.1899414,-0.04638672,-0.4121094,0.1318359
561,26.625,-6.0625,-0.375,0.4174805,1.057129,0.1738281,-0.04638672,-0.4121094,0.1318359
562,28.25,-2.4375,-1.625,0.409668,0.9370117,0.1342773,-0.04638672,-0.4121094,0.1318359
563,24,-0.875,3.375,0.4692383,0.956543,0.1582031,-0.04638672,-0.4121094,0.1318359
564,20.875,2.1875,3.625,0.465332,0.9990234,0.1303711,-0.04638672,-0.4121094,0.1318359
565,14.5,3.875,-1.3125,0.425293,0.9331055,0.05517578,-0.04638672,-0.4121094,0.1318359
566,6.5,0.875,-1.875,0.453125,0.9873047,0.06347656,-0.04638672,-0.4121094,0.1318359
567,-5.75,2.8125,-3.8125,0.4453125,1.025879,0.05517578,-0.04638672,-0.4121094,0.1318359
569,-23.5,6.5,-4.0625,0.4848633,0.9833984,-0.0234375,-0.04638672,-0.4121094,0.1318359
570,-34.8125,6.4375,-7,0.5170898,0.8598633,0.06347656,-0.04638672,-0.4121094,0.1318359
571,-36.875,4.6875,-15.25,0.480957,0.9140625,0.09082031,-0.04638672,-0.4121094,0.1318359
572,-35.25,2.125,-17.6875,0.4453125,0.9448242,0.03955078,-0.04638672,-0.4121094,0.1318359
573,-37.875,6.3125,-17.5,0.4892578,0.8945313,0.03955078,-0.04638672,-0.4121094,0.1318359
574,-37.1875,10.125,-15.375,0.4492188,0.8056641,0.1186523,-0.04638672,-0.4121094,0.1318359
575,-34.375,10.75,-15.0625,0.453125,0.8212891,0.1738281,-0.04638672,-0.4121094,0.1318359
576,-29.3125,9.125,-18.0625,0.3896484,0.8598633,0.1342773,-0.04638672,-0.4121094,0.1318359
577,-32,8.125,-19.625,0.4453125,0.8833008,0.1303711,-0.04638672,-0.4121094,0.1318359
578,-38.8125,9.9375,-17.5625,0.4492188,0.890625,0.1303711,-0.04638672,-0.4121094,0.1318359
579,-37.8125,13.1875,-13.375,0.4213867,0.8598633,0.1738281,-0.04638672,-0.4121094,0.1318359
580,-29.625,19.125,-6.25,0.4492188,0.871582,0.1420898,-0.04638672,-0.4121094,0.1318359
581,-26.25,25.9375,1.375,0.4492188,0.8945313,0.1503906,-0.04638672,-0.4121094,0.1318359
582,-22.875,33.6875,2.1875,0.4848633,0.9370117,0.1464844,-0.04638672,-0.4121094,0.1318359
583,-19.6875,34.5,-5.0625,0.4770508,0.9257813,0.1621094,-0.04638672,-0.4121094,0.1318359
584,-16.125,33.0625,-16.375,0.4614258,0.9296875,0.1381836,-0.04638672,-0.4121094,0.1318359
585,-10.9375,29.0625,-24.625,0.4174805,0.8945313,0.1816406,-0.04638672,-0.4121094,0.1318359
586,-4.625,23.9375,-31.5,0.4052734,0.9682617,0.1147461,-0.04638672,-0.4121094,0.1318359
587,-4.4375,15.3125,-36.75,0.4013672,1.037598,0.09082031,-0.04638672,-0.4121094,0.1318359
588,-8.6875,1.1875,-45.125,0.3735352,1.041504,0.09082031,-0.04638672,-0.4121094,0.1318359
589,-25.625,-6.5625,-60.5625,0.5527344,1.138184,0.1855469,-0.04638672,-0.4121094,0.1318359
590,-29.875,-12.1875,-73.1875,0.5048828,0.9604492,0.09472656,-0.04638672,-0.4121094,0.1318359
591,-23.25,-24.875,-75.875,0.4052734,0.8173828,0.1225586,-0.04638672,-0.4121094,0.1318359
592,-40.5,-30,-74.875,0.4291992,0.9257813,0.1660156,-0.04638672,-0.4121094,0.1318359
593,-35.75,-35.1875,-76.0625,0.4570313,1.021973,0.1381836,-0.04638672,-0.4121094,0.1318359
594,-36.125,-37.0625,-77.875,0.3300781,0.9140625,0.01171875,-0.04638672,-0.4121094,0.1318359
595,-55.625,-36.3125,-72.875,0.4013672,0.9331055,0.1582031,-0.04638672,-0.4121094,0.1318359
596,-53.1875,-33.875,-78.125,0.3378906,0.9794922,0.1264648,-0.04638672,-0.4121094,0.1318359
597,-45.25,-35.5625,-74.25,0.3178711,0.7983398,0.1108398,-0.04638672,-0.4121094,0.1318359
598,-43.5,-30.625,-65.5,0.2978516,0.8754883,0.1464844,-0.04638672,-0.4121094,0.1318359
599,-36.5625,-22.25,-60.75,0.3217773,0.9990234,0.1542969,-0.04638672,-0.4121094,0.1318359
600,-27.75,-14.0625,-57.25,0.3100586,1.061035,0.1699219,-0.04638672,-0.4121094,0.1318359
601,-16.375,-9,-52.375,0.2939453,1.021973,0.2412109,-0.04638672,-0.4121094,0.1318359
602,-7.8125,-3.9375,-47.5625,0.480957,1.041504,0.3125,-0.04638672,-0.4121094,0.1318359
603,2.9375,0.75,-42.3125,0.2661133,0.9101563,0.2333984,-0.04638672,-0.4121094,0.1318359
604,-2.6875,6.8125,-38.375,0.2783203,0.8408203,0.2963867,-0.04638672,-0.4121094,0.1318359
605,-6.75,8.375,-31.625,0.2939453,0.8754883,0.2807617,-0.04638672,-0.4121094,0.1318359
606,-9.1875,6.25,-25.5625,0.2460938,0.871582,0.2768555,-0.04638672,-0.4121094,0.1318359
607,-4.75,6.5,-22.375,0.2739258,0.9023438,0.2607422,-0.04638672,-0.4121094,0.1318359
608,-5.875,5.125,-24.0625,0.2143555,0.855957,0.2373047,-0.04638672,-0.4121094,0.1318359
609,-5.6875,5.4375,-27.9375,0.2939453,0.890625,0.3041992,-0.04638672,-0.4121094,0.1318359
610,-6,-1.125,-24.1875,0.2104492,0.9257813,0.2133789,-0.04638672,-0.4121094,0.1318359
611,-16.8125,-1.25,-35,0.1943359,0.921875,0.2373047,-0.04638672,-0.4121094,0.1318359
612,-17.6875,-1.5,-40.1875,0.2026367,0.890625,0.2211914,-0.04638672,-0.4121094,0.1318359
613,-15.8125,1.1875,-45.5,0.1865234,0.9023438,0.2373047,-0.04638672,-0.4121094,0.1318359
614,-13.75,5.6875,-45.375,0.1943359,0.8442383,0.2451172,-0.04638672,-0.4121094,0.1318359
615,-13.25,11.625,-39.5625,0.1987305,0.7670898,0.3081055,-0.04638672,-0.4121094,0.1318359
616,-10.0625,15.9375,-33.5,0.1826172,0.7788086,0.2646484,-0.04638672,-0.4121094,0.1318359
617,-9,17,-29.625,0.1904297,0.8793945,0.2294922,-0.04638672,-0.4121094,0.1318359
618,-15.0625,17.25,-25.4375,0.1987305,0.9023438,0.1699219,-0.04638672,-0.4121094,0.1318359
619,-15.375,10.4375,-25.5625,0.1748047,0.90625,0.2016602,-0.04638672,-0.4121094,0.1318359
620,-11.3125,2.1875,-21.375,0.1665039,0.7983398,0.2807617,-0.04638672,-0.4121094,0.1318359
621,-11.375,-6.8125,-17.4375,0.1987305,0.9296875,0.3359375,-0.04638672,-0.4121094,0.1318359
622,-11.25,-9.625,-19.875,0.1787109,0.956543,0.3637695,-0.04638672,-0.4121094,0.1318359
623,-5.375,-10.125,-13.5625,0.1625977,0.9794922,0.284668,-0.04638672,-0.4121094,0.1318359
624,-0.9375,-7.5,-9.8125,0.2143555,1.087891,0.2333984,-0.04638672,-0.4121094,0.1318359
625,-2.0625,-2.5,-5.625,0.2182617,1.076172,0.1816406,-0.04638672,-0.4121094,0.1318359
626,-2.625,-0.5,-2.125,0.2382813,1.095703,0.1264648,-0.04638672,-0.4121094,0.1318359
627,-4.1875,-3.5625,-3.25,0.2143555,1.049316,0.1108398,-0.04638672,-0.4121094,0.1318359
628,1.125,-10.8125,-11.25,0.1865234,1.11084,0.2016602,-0.04638672,-0.4121094,0.1318359
629,3.875,-13.1875,-17.125,0.1347656,1.118652,0.1699219,-0.04638672,-0.4121094,0.1318359
630,5.4375,-15.3125,-25.8125,0.1269531,1.029785,0.1303711,-0.04638672,-0.4121094,0.1318359
631,13.375,-20.5625,-28.1875,0.1625977,0.972168,0.1777344,-0.04638672,-0.4121094,0.1318359
632,11.9375,-22.375,-28.0625,0.1308594,0.8676758,0.1660156,-0.04638672,-0.4121094,0.1318359
634,9,-25.3125,-22,0.1386719,0.8598633,0.2055664,-0.04638672,-0.4121094,0.1318359
635,2.5625,-23.75,-19.6875,0.1508789,0.8945313,0.2412109,-0.04638672,-0.4121094,0.1318359
636,-0.3125,-20.5625,-14.9375,0.1904297,0.9760742,0.2172852,-0.04638672,-0.4121094,0.1318359
637,-2,-16.375,-13.1875,0.1625977,0.9682617,0.2250977,-0.04638672,-0.4121094,0.1318359
638,1.5625,-14.25,-15,0.1508789,0.956543,0.2768555,-0.04638672,-0.4121094,0.1318359
639,7.125,-11.625,-19.3125,0.1547852,0.8330078,0.2294922,-0.04638672,-0.4121094,0.1318359
640,5.3125,-11.3125,-16.875,0.222168,1.064941,0.2685547,-0.04638672,-0.4121094,0.1318359
641,0.0625,-7.25,-18.375,0.2182617,0.9912109,0.1464844,-0.04638672,-0.4121094,0.1318359
642,-4.9375,-6.5,-18.8125,0.206543,0.9794922,0.1738281,-0.04638672,-0.4121094,0.1318359
643,-8.75,-7.4375,-21.875,0.1943359,0.9682617,0.2211914,-0.04638672,-0.4121094,0.1318359
644,-12.1875,-8.375,-22.375,0.2265625,0.890625,0.3041992,-0.04638672,-0.4121094,0.1318359
645,-17.8125,-6.5,-22.75,0.2382813,0.9101563,0.2451172,-0.04638672,-0.4121094,0.1318359
646,-23.375,-3.375,-20.0625,0.222168,0.9487305,0.2294922,-0.04638672,-0.4121094,0.1318359
647,-31.1875,-1.0625,-16.75,0.2104492,0.9526367,0.1420898,-0.04638672,-0.4121094,0.1318359
648,-34.375,0.6875,-14.0625,0.1748047,0.9487305,0.2412109,-0.04638672,-0.4121094,0.1318359
649,-37.25,3.4375,-9.9375,0.1665039,0.921875,0.2412109,-0.04638672,-0.4121094,0.1318359
650,-39.6875,8.125,-3.75,0.1386719,0.9643555,0.2568359,-0.04638672,-0.4121094,0.1318359
651,-41.125,11.875,2.4375,0.1230469,0.940918,0.300293,-0.04638672,-0.4121094,0.1318359
652,-43,13.9375,7.25,0.07910156,0.9604492,0.3081055,-0.04638672,-0.4121094,0.1318359
653,-42.9375,13.8125,11.25,0.04736328,0.940918,0.3125,-0.04638672,-0.4121094,0.1318359
654,-41.75,10.9375,16.125,0.07128906,0.9331055,0.3242188,-0.04638672,-0.4121094,0.1318359
655,-43.375,6.8125,18.8125,0.06738281,0.9257813,0.3203125,-0.04638672,-0.4121094,0.1318359
656,-45,2.0625,21.625,0.07519531,0.890625,0.3637695,-0.04638672,-0.4121094,0.1318359
657,-50.3125,-4.5625,23.125,0.05126953,0.8676758,0.3242188,-0.04638672,-0.4121094,0.1318359
658,-61.1875,-8.0625,24.25,-0.02392578,0.8945313,0.328125,-0.04638672,-0.4121094,0.1318359
659,-69.25,-10.75,20,-0.01611328,0.8754883,0.3911133,-0.04638672,-0.4121094,0.1318359
660,-66.3125,-13.375,10.125,-0.02392578,0.8598633,0.4111328,-0.04638672,-0.4121094,0.1318359
661,-59.5625,-14.1875,1,0.003417969,0.8520508,0.4072266,-0.04638672,-0.4121094,0.1318359
662,-52.875,-13.25,-5.875,0.01953125,0.8520508,0.4189453,-0.04638672,-0.4121094,0.1318359
663,-47.4375,-13.1875,-8,0.0234375,0.855957,0.3637695,-0.04638672,-0.4121094,0.1318359
664,-51.1875,-15.5625,-10.3125,0,0.8754883,0.3515625,-0.04638672,-0.4121094,0.1318359
665,-69.375,-26.6875,-14.75,0.07910156,1.029785,0.4980469,-0.04638672,-0.4121094,0.1318359
666,-69.0625,-25.9375,-21.3125,0.1347656,0.8481445,0.3398438,-0.04638672,-0.4121094,0.1318359
667,-80.0625,-29.3125,-14,0.05908203,0.921875,0.2568359,-0.04638672,-0.4121094,0.1318359
668,-78.0625,-28.8125,-22.4375,0.03515625,0.9370117,0.2685547,-0.04638672,-0.4121094,0.1318359
669,-83.1875,-34.5625,-16.125,0.06738281,0.9257813,0.2685547,-0.04638672,-0.4121094,0.1318359
670,-90.375,-35.25,-16.9375,0.09912109,0.9101563,0.3676758,-0.04638672,-0.4121094,0.1318359
671,-101.8125,-37.125,-17.9375,0.1547852,0.8676758,0.4111328,-0.04638672,-0.4121094,0.1318359
672,-112.625,-32.875,-19.75,0.1308594,0.8598633,0.3833008,-0.04638672,-0.4121094,0.1318359
673,-124.3125,-23.3125,-23,0.2739258,0.887207,0.4189453,-0.04638672,-0.4121094,0.1318359
674,-134,-20.25,-29.0625,0.1191406,0.8945313,0.4267578,-0.04638672,-0.4121094,0.1318359
675,-171.6875,-18.25,-35.5625,0.06298828,0.8833008,0.3676758,-0.04638672,-0.4121094,0.1318359
676,-204.25,-17.8125,-21.9375,0.09912109,0.8330078,0.4150391,-0.04638672,-0.4121094,0.1318359
677,-234.625,-30.9375,-3.625,0.01123047,0.6396484,0.3203125,-0.04638672,-0.4121094,0.1318359
678,-288.4375,-19.5625,26.4375,0.2026367,0.7827148,0.7709961,-0.04638672,-0.4121094,0.1318359
679,-288.625,-12.5625,11.1875,0.2265625,1.018555,0.6088867,-0.04638672,-0.4121094,0.1318359
680,-308.375,-4.6875,6.6875,0.1787109,1.168945,0.00390625,-0.04638672,-0.4121094,0.1318359
681,-320.5,22.375,29.9375,0.03515625,0.9604492,0.7270508,-0.04638672,-0.4121094,0.1318359
682,-235.6875,29.5,46.875,0.07910156,0.5585938,1.102539,-0.04638672,-0.4121094,0.1318359
683,-197.25,15.4375,58.8125,0.1508789,1.23877,0.6757813,-0.04638672,-0.4121094,0.1318359
684,-191.375,16.4375,26.8125,-0.08349609,1.064941,0.9169922,-0.04638672,-0.4121094,0.1318359
685,-221,-3.625,-25.0625,0.1748047,1.049316,0.5336914,-0.04638672,-0.4121094,0.1318359
686,-272,-9.5,-84.75,0.1704102,0.4077148,0.8891602,-0.04638672,-0.4121094,0.1318359
687,-305.875,-20.0625,-122.25,0.2739258,0.2070313,0.8457031,-0.04638672,-0.4121094,0.1318359
688,-299.375,-18.75,-121.4375,0.2143555,0.2998047,0.8222656,-0.04638672,-0.4121094,0.1318359
689,-290.5625,-17.375,-137.625,0.2182617,0.4736328,0.8696289,-0.04638672,-0.4121094,0.1318359
690,-263.25,-8.0625,-150.375,0.2304688,0.4350586,0.8735352,-0.04638672,-0.4121094,0.1318359
691,-245.4375,0.25,-142.75,0.1987305,0.5004883,0.7626953,-0.04638672,-0.4121094,0.1318359
692,-235.75,13.5625,-133.875,0.234375,0.4580078,0.8339844,-0.04638672,-0.4121094,0.1318359
693,-213.5,21.75,-105.125,0.1826172,0.4736328,0.8891602,-0.04638672,-0.4121094,0.1318359
694,-190.4375,25.375,-77.9375,0.1069336,0.5742188,1.003906,-0.04638672,-0.4121094,0.1318359
695,-161.3125,22.5,-48.8125,0.05126953,0.5854492,0.9604492,-0.04638672,-0.4121094,0.1318359
696,-135.125,15.25,-37.6875,0.01123047,0.5854492,1.027832,-0.04638672,-0.4121094,0.1318359
697,-116.625,6.125,-42.125,0.05908203,0.527832,1.063477,-0.04638672,-0.4121094,0.1318359
699,-97.0625,-1.6875,-35.3125,0.07519531,0.4775391,0.9208984,-0.04638672,-0.4121094,0.1318359
700,-76.3125,1.25,-36.8125,0.09521484,0.4155273,0.9604492,-0.04638672,-0.4121094,0.1318359
701,-73.4375,-0.1875,-47.375,0.1469727,0.4038086,1.003906,-0.04638672,-0.4121094,0.1318359
702,-81.0625,6.25,-65.4375,0.1748047,0.4272461,0.9487305,-0.04638672,-0.4121094,0.1318359
703,-94.6875,16.5625,-89.75,0.1625977,0.3344727,0.956543,-0.04638672,-0.4121094,0.1318359
704,-100.875,26.1875,-103.6875,0.1191406,0.2724609,0.9487305,-0.04638672,-0.4121094,0.1318359
705,-97.9375,37.0625,-110.875,-0.2827148,0.4311523,1.260742,-0.04638672,-0.4121094,0.1318359
706,-59.8125,23.6875,-174.0625,-0.07958984,-0.08251953,0.8891602,-0.04638672,-0.4121094,0.1318359
707,-83.8125,25.375,-86.375,-0.1992188,0.2495117,1.339844,-0.04638672,-0.4121094,0.1318359
708,-66.6875,17.5,-90.0625,-0.2109375,0.4350586,1.122559,-0.04638672,-0.4121094,0.1318359
709,-42.375,3.0625,-89.6875,-0.2626953,0.3500977,1.272949,-0.04638672,-0.4121094,0.1318359
710,-13.25,-8.8125,-63.625,-0.2270508,0.222168,1.260742,-0.04638672,-0.4121094,0.1318359
711,9.25,-15.5625,-32,-0.09960938,0.3730469,1.11084,-0.04638672,-0.4121094,0.1318359
712,21.75,-19.25,-20.125,-0.1113281,0.3110352,1.059082,-0.04638672,-0.4121094,0.1318359
713,50.125,-28.75,10.5625,-0.07568359,0.1259766,1.027832,-0.04638672,-0.4121094,0.1318359
714,2.25,-7.25,-16.375,0.2900391,0.512207,0.8144531,-0.04638672,-0.4121094,0.1318359
715,31.25,-38,-17.25,-0.5888672,-0.7817383,1.158203,-0.04638672,-0.4121094,0.1318359
716,40.3125,-59.5,34.125,-0.1713867,-0.1015625,1.221191,-0.04638672,-0.4121094,0.1318359
717,-0.625,-38.3125,44.3125,-0.09130859,0.4775391,1.158203,-0.04638672,-0.4121094,0.1318359
718,-11.0625,-32.9375,15.5625,-0.07568359,0.6513672,1.094727,-0.04638672,-0.4121094,0.1318359
719,10.25,-38.5625,3.8125,-0.1074219,0.5351563,1.003906,-0.04638672,-0.4121094,0.1318359
720,17.1875,-52.0625,-6.25,0.015625,0.496582,1.079102,-0.04638672,-0.4121094,0.1318359
721,-4.5,-57,-31.1875,0.04345703,0.3925781,1.181641,-0.04638672,-0.4121094,0.1318359
722,-34.5,-45.0625,-45.25,-0.08349609,0.1914063,1.11084,-0.04638672,-0.4121094,0.1318359
723,-51.8125,-28.75,-42,-0.09130859,0.07958984,1.079102,-0.04638672,-0.4121094,0.1318359
724,-59.8125,-30,-34.75,-0.04785156,0.1606445,1.083008,-0.04638672,-0.4121094,0.1318359
725,-63.25,-36.5,-29.1875,-0.03173828,0.1992188,0.9960938,-0.04638672,-0.4121094,0.1318359
726,-68.8125,-43.375,-25.5,-0.01611328,0.2685547,1.083008,-0.04638672,-0.4121094,0.1318359
727,-76.625,-40.5,-17.75,-0.09570313,0.2109375,1.138184,-0.04638672,-0.4121094,0.1318359
728,-81.8125,-28.5625,-2.875,-0.1352539,0.2573242,1.197754,-0.04638672,-0.4121094,0.1318359
729,-84.125,-8.375,3.375,-0.1474609,0.2612305,1.14209,-0.04638672,-0.4121094,0.1318359
730,-90.9375,11.4375,8.5625,-0.2866211,0.1103516,0.8579102,-0.04638672,-0.4121094,0.1318359
731,-117.5625,19,43.4375,-0.3701172,0.09863281,0.7075195,-0.04638672,-0.4121094,0.1318359
732,-151.1875,28.0625,68.8125,-0.203125,0.21875,1.122559,-0.04638672,-0.4121094,0.1318359
733,-139.75,50.5625,72,-0.0078125,0.2260742,1.359863,-0.04638672,-0.4121094,0.1318359
734,-106.1875,55.375,56.8125,0.09521484,0.2802734,1.249023,-0.04638672,-0.4121094,0.1318359
735,-75.625,48.375,36.8125,0.1308594,0.2651367,1.29248,-0.04638672,-0.4121094,0.1318359
736,-52.0625,43,18.0625,0.07519531,0.2685547,1.177734,-0.04638672,-0.4121094,0.1318359
737,-48.75,37.5625,9.125,-0.04785156,0.2416992,1.193848,-0.04638672,-0.4121094,0.1318359
738,-58,38.5,12.0625,-0.09130859,0.2573242,1.217285,-0.04638672,-0.4121094,0.1318359
739,-65.5,36.1875,10.125,-0.01171875,0.3461914,1.233398,-0.04638672,-0.4121094,0.1318359
740,-66.25,30.6875,2.625,-0.03173828,0.3730469,1.169922,-0.04638672,-0.4121094,0.1318359
741,-67.375,22.875,-4.0625,-0.03173828,0.21875,1.14209,-0.04638672,-0.4121094,0.1318359
742,-60,17.3125,-10.375,-0.1035156,0.04443359,1.118652,-0.04638672,-0.4121094,0.1318359
743,-53.0625,12,-9.875,-0.2148438,-0.09375,1,-0.04638672,-0.4121094,0.1318359
744,-57.3125,4.9375,0.375,-0.2905273,-0.1865234,0.9326172,-0.04638672,-0.4121094,0.1318359
745,-61.625,-5.5,12.75,-0.2944336,-0.1479492,0.8735352,-0.04638672,-0.4121094,0.1318359
746,-65.25,-20.25,23.25,-0.2827148,-0.1557617,0.8457031,-0.04638672,-0.4121094,0.1318359
747,-73.375,-36.75,33.3125,-0.2827148,-0.1401367,0.8891602,-0.04638672,-0.4121094,0.1318359
748,-84.9375,-47.4375,41.5625,-0.2387695,-0.125,0.9682617,-0.04638672,-0.4121094,0.1318359
749,-95.125,-47.3125,46.625,-0.190918,-0.05908203,1.086914,-0.04638672,-0.4121094,0.1318359
750,-103.25,-41.125,47.8125,-0.1591797,-0.008789063,1.166016,-0.04638672,-0.4121094,0.1318359
751,-112.875,-33.5625,46.375,-0.1152344,0.02148438,1.20166,-0.04638672,-0.4121094,0.1318359
752,-121.25,-22.9375,44.9375,-0.09130859,0.02929688,1.229492,-0.04638672,-0.4121094,0.1318359
753,-120.5,-12.3125,39.0625,-0.1113281,0.02539063,1.197754,-0.04638672,-0.4121094,0.1318359
754,-108.6875,-7.0625,30.0625,-0.1474609,-0.02050781,1.067383,-0.04638672,-0.4121094,0.1318359
755,-89.8125,-11.4375,18.625,-0.1630859,-0.09375,0.9604492,-0.04638672,-0.4121094,0.1318359
756,-73.4375,-19.625,11.1875,-0.1791992,-0.1713867,0.9130859,-0.04638672,-0.4121094,0.1318359
757,-66.4375,-27.1875,13.5625,-0.2587891,-0.2446289,0.8735352,-0.04638672,-0.4121094,0.1318359
758,-70.875,-34.875,20.9375,-0.2666016,-0.2792969,0.8735352,-0.04638672,-0.4121094,0.1318359
759,-85.5,-40.375,33.625,-0.2983398,-0.2641602,0.8930664,-0.04638672,-0.4121094,0.1318359
760,-107.4375,-46.0625,47.3125,-0.2426758,-0.1982422,0.8852539,-0.04638672,-0.4121094,0.1318359
761,-127.4375,-52.1875,57.75,-0.2070313,-0.1328125,0.940918,-0.04638672,-0.4121094,0.1318359
762,-142.8125,-57.4375,62.3125,-0.1152344,-0.1054688,1.023926,-0.04638672,-0.4121094,0.1318359
764,-154.3125,-54.5625,61.9375,-0.07958984,-0.06689453,1.169922,-0.04638672,-0.4121094,0.1318359
765,-161.25,-41.6875,59.625,-0.01171875,-0.07861328,1.241211,-0.04638672,-0.4121094,0.1318359
766,-161.5625,-29.1875,53.625,-0.00390625,-0.1171875,1.20166,-0.04638672,-0.4121094,0.1318359
767,-152.6875,-20.25,42.3125,0.015625,-0.109375,1.193848,-0.04638672,-0.4121094,0.1318359
768,-137.875,-14,28.625,-0.00390625,-0.1557617,1.193848,-0.04638672,-0.4121094,0.1318359
769,-114.1875,-9.8125,14.375,-0.02001953,-0.2675781,1.071289,-0.04638672,-0.4121094,0.1318359
770,-92.5625,-10.25,4.8125,-0.05566406,-0.3798828,0.9287109,-0.04638672,-0.4121094,0.1318359
771,-85.3125,-12.875,3.6875,-0.1074219,-0.46875,0.8696289,-0.04638672,-0.4121094,0.1318359
772,-87.9375,-14.625,13.0625,-0.1391602,-0.503418,0.7587891,-0.04638672,-0.4121094,0.1318359
773,-97.125,-15.8125,23.6875,-0.1992188,-0.5112305,0.7431641,-0.04638672,-0.4121094,0.1318359
774,-112.1875,-21.375,38.1875,-0.2148438,-0.4956055,0.612793,-0.04638672,-0.4121094,0.1318359
775,-133.5,-33,51.5,-0.21875,-0.4804688,0.5258789,-0.04638672,-0.4121094,0.1318359
776,-158.1875,-46.1875,63.8125,-0.1669922,-0.4262695,0.5175781,-0.04638672,-0.4121094,0.1318359
777,-179.375,-59.0625,72.4375,-0.1113281,-0.3994141,0.5693359,-0.04638672,-0.4121094,0.1318359
778,-192.75,-68.25,74,-0.02001953,-0.3295898,0.6601563,-0.04638672,-0.4121094,0.1318359
779,-206.5,-48.375,48.625,0.3974609,0.2416992,1.584961,-0.04638672,-0.4121094,0.1318359
780,-146.0625,83.875,38.125,0.08300781,-0.4262695,1.584961,-0.04638672,-0.4121094,0.1318359
781,-114.5625,135.5,11,0.4848633,-0.144043,1.806152,-0.04638672,-0.4121094,0.1318359
782,-78.1875,130.0625,11.75,-0.0078125,-0.2368164,0.7866211,-0.04638672,-0.4121094,0.1318359
783,-80.875,100.0625,3.9375,-0.3222656,-0.09765625,-0.8413086,-0.04638672,-0.4121094,0.1318359
784,-85.1875,22,22.3125,0.05908203,-0.7509766,0.65625,-0.04638672,-0.4121094,0.1318359
785,-65.25,40.9375,4.625,0.07910156,-0.5229492,0.6958008,-0.04638672,-0.4121094,0.1318359
786,-73.3125,52.5,-16.25,0.1904297,-0.4106445,0.7470703,-0.04638672,-0.4121094,0.1318359
787,-67.375,55.25,-24.875,0.1508789,-0.3413086,0.8222656,-0.04638672,-0.4121094,0.1318359
788,-50.0625,51.875,-32.375,0.1147461,-0.3217773,0.8183594,-0.04638672,-0.4121094,0.1318359
789,-43.3125,55.6875,-42,0.06298828,-0.3642578,0.7431641,-0.04638672,-0.4121094,0.1318359
790,-44.5625,61.1875,-39.9375,-0.04785156,-0.4418945,0.7548828,-0.04638672,-0.4121094,0.1318359
791,-43.875,61.9375,-25.375,-0.08740234,-0.4804688,0.8496094,-0.04638672,-0.4121094,0.1318359
792,-33.0625,66.4375,-16.5,0.07910156,-0.4379883,0.9487305,-0.04638672,-0.4121094,0.1318359
793,-37.375,95.625,-2.75,-0.01611328,-0.5922852,0.8813477,-0.04638672,-0.4121094,0.1318359
794,-49.5,135.5625,11.4375,-0.01611328,-0.5341797,0.8144531,-0.04638672,-0.4121094,0.1318359
795,-61.9375,166.375,13.75,0.03515625,-0.5151367,0.8696289,-0.04638672,-0.4121094,0.1318359
796,-46.3125,169.75,-4.3125,0.01953125,-0.5307617,0.9526367,-0.04638672,-0.4121094,0.1318359
797,-11.9375,162.1875,-25.9375,0.03515625,-0.5268555,1.007813,-0.04638672,-0.4121094,0.1318359
798,15.875,154.0625,-39.3125,0.09082031,-0.4492188,1.063477,-0.04638672,-0.4121094,0.1318359
799,103.8125,123.5625,-17,-0.05175781,-0.6464844,1.209473,-0.04638672,-0.4121094,0.1318359
800,86.5,110.25,-36,0.1069336,-0.4492188,1.106934,-0.04638672,-0.4121094,0.1318359
801,88.375,107.625,-33.625,0.02734375,-0.5419922,1.185547,-0.04638672,-0.4121094,0.1318359
802,91.375,100.125,-16.5625,0.03515625,-0.5576172,1.209473,-0.04638672,-0.4121094,0.1318359
803,93.25,89.0625,-5.0625,0.08300781,-0.5537109,1.185547,-0.04638672,-0.4121094,0.1318359
804,87.75,77.3125,-4.0625,0.03125,-0.6079102,1.185547,-0.04638672,-0.4121094,0.1318359
805,90.125,68.125,-3.875,0.003417969,-0.6425781,1.209473,-0.04638672,-0.4121094,0.1318359
806,96.875,61.625,-5.8125,-0.01171875,-0.6308594,1.209473,-0.04638672,-0.4121094,0.1318359
807,101.6875,58.0625,-7,-0.02392578,-0.5922852,1.154297,-0.04638672,-0.4121094,0.1318359
808,102.0625,60,-4.0625,0.04345703,-0.5732422,1.138184,-0.04638672,-0.4121094,0.1318359
809,93.6875,65.25,1.6875,0.07519531,-0.4726563,1.106934,-0.04638672,-0.4121094,0.1318359
810,78.9375,69.6875,8.0625,0.04736328,-0.5112305,1.193848,-0.04638672,-0.4121094,0.1318359
811,61.0625,70.375,8.5,0.05517578,-0.5112305,1.245117,-0.04638672,-0.4121094,0.1318359
812,46.75,65.9375,3.125,0.05517578,-0.5341797,1.304199,-0.04638672,-0.4121094,0.1318359
813,41.5,54.125,-5.5,0.007324219,-0.5380859,1.371582,-0.04638672,-0.4121094,0.1318359
814,46.5,40.1875,-13.3125,0,-0.5537109,1.371582,-0.04638672,-0.4121094,0.1318359
815,63.8125,30.125,-20.625,-0.01611328,-0.4956055,1.418945,-0.04638672,-0.4121094,0.1318359
816,78.25,24.0625,-22.9375,-0.05175781,-0.4916992,1.387207,-0.04638672,-0.4121094,0.1318359
817,87.6875,17.9375,-19.4375,-0.08740234,-0.4916992,1.418945,-0.04638672,-0.4121094,0.1318359
818,97.875,13.125,-15.25,-0.08740234,-0.4882813,1.438965,-0.04638672,-0.4121094,0.1318359
819,113.5625,10.8125,-9.125,-0.1196289,-0.4648438,1.470215,-0.04638672,-0.4121094,0.1318359
820,125.125,11.1875,-2.1875,0.08300781,-0.3955078,1.612793,-0.04638672,-0.4121094,0.1318359
821,118.6875,75.9375,-14.0625,-0.1630859,-0.4956055,1.3125,-0.04638672,-0.4121094,0.1318359
822,124.375,48.75,-36.4375,-0.3583984,-0.5073242,1.40332,-0.04638672,-0.4121094,0.1318359
823,108.25,22.6875,-16.8125,-0.3383789,-0.418457,1.411133,-0.04638672,-0.4121094,0.1318359
824,98.4375,-4.3125,-6.625,-0.246582,-0.3139648,1.482422,-0.04638672,-0.4121094,0.1318359
825,98.9375,-20.5625,-4.6875,-0.1992188,-0.3256836,1.501953,-0.04638672,-0.4121094,0.1318359
826,98.1875,-28.875,-1.8125,-0.1831055,-0.3105469,1.418945,-0.04638672,-0.4121094,0.1318359
827,56.8125,-43.3125,-7.75,-0.1430664,-0.125,1.150391,-0.04638672,-0.4121094,0.1318359
829,7.1875,-51.1875,-8,-0.1430664,-0.1943359,1.154297,-0.04638672,-0.4121094,0.1318359
830,-38.875,-60.625,-12.125,-0.1513672,-0.2910156,0.8813477,-0.04638672,-0.4121094,0.1318359
831,-66.8125,-63.9375,-2.375,-0.09130859,-0.3413086,1.14209,-0.04638672,-0.4121094,0.1318359
832,-65.875,-60.6875,-7.0625,0.007324219,-0.2446289,1.241211,-0.04638672,-0.4121094,0.1318359
833,-47.125,-55.5,-24,0.06738281,-0.2910156,1.328125,-0.04638672,-0.4121094,0.1318359
834,-30.25,-43.375,-35.1875,0.03125,-0.3837891,1.300293,-0.04638672,-0.4121094,0.1318359
835,-18.8125,-39.5,-28.9375,-0.08740234,-0.4492188,1.20166,-0.04638672,-0.4121094,0.1318359
836,-19.0625,-39.875,-20.3125,-0.07177734,-0.4301758,1.233398,-0.04638672,-0.4121094,0.1318359
837,-25.4375,-31.6875,-14.5625,-0.04003906,-0.3955078,1.347656,-0.04638672,-0.4121094,0.1318359
838,-27.3125,-16.5625,-9.3125,-0.06787109,-0.4223633,1.39502,-0.04638672,-0.4121094,0.1318359
839,-12.125,-7.5,-8.3125,-0.04003906,-0.3681641,1.359863,-0.04638672,-0.4121094,0.1318359
840,12.6875,-2.25,-15.75,-0.02783203,-0.3066406,1.284668,-0.04638672,-0.4121094,0.1318359
841,24.4375,4.125,-21.625,-0.05566406,-0.2407227,1.162109,-0.04638672,-0.4121094,0.1318359
842,20.125,4,-26.4375,-0.09960938,-0.1904297,1.067383,-0.04638672,-0.4121094,0.1318359
843,7.3125,-3.8125,-33.0625,-0.08740234,-0.1787109,1.05127,-0.04638672,-0.4121094,0.1318359
844,-7.625,-13.1875,-39.5,-0.09130859,-0.1982422,1.122559,-0.04638672,-0.4121094,0.1318359
845,-22.375,-17,-45.125,-0.08349609,-0.2524414,1.150391,-0.04638672,-0.4121094,0.1318359
846,-33.9375,-12.625,-46.5,-0.06347656,-0.3491211,1.241211,-0.04638672,-0.4121094,0.1318359
847,-35.9375,-0.5,-43.125,-0.06347656,-0.3876953,1.268555,-0.04638672,-0.4121094,0.1318359
848,-24.5625,13.75,-39.125,-0.06347656,-0.3603516,1.339844,-0.04638672,-0.4121094,0.1318359
849,-9.125,28.5,-36.9375,-0.06347656,-0.2949219,1.284668,-0.04638672,-0.4121094,0.1318359
850,-4.5625,40.6875,-36.5,-0.08740234,-0.2099609,1.217285,-0.04638672,-0.4121094,0.1318359
851,-9.875,48.5,-37.5,-0.1074219,-0.2177734,1.075195,-0.04638672,-0.4121094,0.1318359
852,-9.4375,47.875,-39.6875,-0.1713867,-0.2060547,0.9604492,-0.04638672,-0.4121094,0.1318359
853,2.875,41.5,-42.125,-0.1391602,-0.2329102,0.8974609,-0.04638672,-0.4121094,0.1318359
854,16.25,33.875,-44.25,-0.1630859,-0.2524414,0.8891602,-0.04638672,-0.4121094,0.1318359
855,27.6875,28.375,-46.125,-0.1313477,-0.2524414,0.9248047,-0.04638672,-0.4121094,0.1318359
856,35.1875,26.75,-48.75,-0.1074219,-0.2177734,0.9287109,-0.04638672,-0.4121094,0.1318359
857,39.625,28.1875,-51.4375,-0.1235352,-0.2177734,0.9526367,-0.04638672,-0.4121094,0.1318359
858,41.125,28.0625,-53.0625,-0.1274414,-0.2368164,0.9487305,-0.04638672,-0.4121094,0.1318359
859,37.6875,25.5,-53.0625,-0.1591797,-0.2368164,0.9487305,-0.04638672,-0.4121094,0.1318359
860,30.6875,21.75,-53.125,-0.1391602,-0.1826172,0.9682617,-0.04638672,-0.4121094,0.1318359
861,24.6875,18.9375,-56,-0.1196289,-0.2138672,1,-0.04638672,-0.4121094,0.1318359
862,25.8125,15.9375,-55.3125,-0.1152344,-0.2446289,1.011719,-0.04638672,-0.4121094,0.1318359
863,30.25,11.4375,-52.875,-0.1074219,-0.2988281,1.015625,-0.04638672,-0.4121094,0.1318359
864,35.9375,8.625,-48.75,-0.1074219,-0.3295898,1.059082,-0.04638672,-0.4121094,0.1318359
865,43.125,8.4375,-43.0625,-0.09570313,-0.3413086,1.134277,-0.04638672,-0.4121094,0.1318359
866,47.5625,12.75,-36.1875,-0.1196289,-0.3256836,1.169922,-0.04638672,-0.4121094,0.1318359
867,47.8125,17.5,-28.5625,-0.09130859,-0.3139648,1.130371,-0.04638672,-0.4121094,0.1318359
868,44.6875,21.25,-22.3125,-0.1074219,-0.2832031,1.106934,-0.04638672,-0.4121094,0.1318359
869,40.0625,24,-18.125,-0.1074219,-0.2407227,1.079102,-0.04638672,-0.4121094,0.1318359
870,35.375,25.1875,-15.375,-0.1196289,-0.2250977,1.027832,-0.04638672,-0.4121094,0.1318359
871,29.625,23.25,-12.6875,-0.1352539,-0.2329102,0.9643555,-0.04638672,-0.4121094,0.1318359
872,21.8125,19,-9.125,-0.1430664,-0.1904297,0.9448242,-0.04638672,-0.4121094,0.1318359
873,12.875,15,-8.5625,-0.1391602,-0.1479492,0.8774414,-0.04638672,-0.4121094,0.1318359
874,9.1875,7.9375,-11.5,-0.09130859,-0.1328125,0.8222656,-0.04638672,-0.4121094,0.1318359
875,12.0625,-1.3125,-13.5,-0.1152344,-0.1289063,0.8061523,-0.04638672,-0.4121094,0.1318359
876,15.625,-10.25,-12.5625,-0.1196289,-0.1557617,0.8496094,-0.04638672,-0.4121094,0.1318359
877,19,-15.9375,-10.5625,-0.09130859,-0.1787109,0.8891602,-0.04638672,-0.4121094,0.1318359
878,20.5,-18.625,-7.5,-0.1152344,-0.1943359,0.9760742,-0.04638672,-0.4121094,0.1318359
879,19.625,-19.6875,-2.375,-0.1074219,-0.1904297,0.9487305,-0.04638672,-0.4121094,0.1318359
880,14.5,-19.625,4.375,-0.1074219,-0.2368164,0.972168,-0.04638672,-0.4121094,0.1318359
881,9.125,-19.3125,11.375,-0.09960938,-0.144043,1.055176,-0.04638672,-0.4121094,0.1318359
882,9.8125,-18.6875,16.6875,-0.1035156,-0.125,1.094727,-0.04638672,-0.4121094,0.1318359
883,15.375,-16.6875,18.875,-0.09570313,-0.05517578,1.098633,-0.04638672,-0.4121094,0.1318359
884,18.375,-14.5625,17.0625,-0.05175781,-0.05126953,1.102539,-0.04638672,-0.4121094,0.1318359
885,16.75,-12.9375,13.3125,-0.07177734,-0.0009765625,1.118652,-0.04638672,-0.4121094,0.1318359
886,13.6875,-11.625,8.25,-0.07568359,0.005859375,1.098633,-0.04638672,-0.4121094,0.1318359
887,14.5,-11.75,4.625,-0.1152344,-0.01660156,1.071289,-0.04638672,-0.4121094,0.1318359
888,17.3125,-12.5625,2,-0.06787109,-0.04003906,1.067383,-0.04638672,-0.4121094,0.1318359
889,17.9375,-15.25,-2,-0.07177734,-0.05126953,1.083008,-0.04638672,-0.4121094,0.1318359
890,14,-17.875,-6.5625,-0.06787109,-0.07080078,1.075195,-0.04638672,-0.4121094,0.1318359
891,9.625,-20.1875,-7.25,-0.09130859,-0.125,1.031738,-0.04638672,-0.4121094,0.1318359
892,9.0625,-20.6875,-6.375,-0.08740234,-0.1015625,1.067383,-0.04638672,-0.4121094,0.1318359
894,7.125,-14.125,-25.5625,-0.03173828,0.08740234,1.039551,-0.04638672,-0.4121094,0.1318359
895,7.875,-20.875,-25.3125,-0.1274414,-0.07080078,1.007813,-0.04638672,-0.4121094,0.1318359
896,12.8125,-30.5,-21.6875,-0.09130859,-0.1362305,1.047363,-0.04638672,-0.4121094,0.1318359
897,11.4375,-29.625,-14.3125,-0.08740234,-0.1635742,1.043457,-0.04638672,-0.4121094,0.1318359
898,9.5,-27.6875,-10.125,-0.07177734,-0.08984375,1.063477,-0.04638672,-0.4121094,0.1318359
899,9.5625,-27.4375,-7.875,-0.06787109,-0.1171875,1.071289,-0.04638672,-0.4121094,0.1318359
900,11.25,-26.875,-5.75,-0.05957031,-0.07861328,1.071289,-0.04638672,-0.4121094,0.1318359
901,13.4375,-26.875,-6.5,-0.02001953,-0.1132813,1.086914,-0.04638672,-0.4121094,0.1318359
902,14.8125,-25.25,-6,-0.05957031,-0.1171875,1.055176,-0.04638672,-0.4121094,0.1318359
903,13.375,-23.6875,-5.0625,-0.05957031,-0.09375,1.083008,-0.04638672,-0.4121094,0.1318359
904,10.9375,-23.25,-2.625,-0.05957031,-0.09765625,1.079102,-0.04638672,-0.4121094,0.1318359
905,10.375,-21.625,1.125,-0.06787109,-0.1362305,1.083008,-0.04638672,-0.4121094,0.1318359
906,13.125,-18.125,5.375,-0.06347656,-0.1479492,1.130371,-0.04638672,-0.4121094,0.1318359
907,18.1875,-13.8125,9.8125,-0.07177734,-0.125,1.134277,-0.04638672,-0.4121094,0.1318359
908,28.9375,-17.8125,30.6875,-0.1591797,-0.04736328,1.059082,-0.04638672,-0.4121094,0.1318359
909,32.125,-24.625,28.25,-0.1113281,-0.0009765625,1.067383,-0.04638672,-0.4121094,0.1318359
910,24.875,-26.3125,22.5,-0.07958984,0.09082031,1.106934,-0.04638672,-0.4121094,0.1318359
911,16.1875,-22.6875,6.3125,-0.05957031,0.09082031,1.138184,-0.04638672,-0.4121094,0.1318359
912,14.5625,-21.375,-1.9375,-0.07177734,0.02929688,1.122559,-0.04638672,-0.4121094,0.1318359
913,15,-24.8125,-6.6875,-0.08349609,-0.0009765625,1.122559,-0.04638672,-0.4121094,0.1318359
914,12.5625,-26.9375,-8.625,-0.08740234,-0.05517578,1.130371,-0.04638672,-0.4121094,0.1318359
915,9.9375,-24.1875,-8.9375,-0.09570313,-0.1132813,1.169922,-0.04638672,-0.4121094,0.1318359
916,9.375,-18.25,-7.625,-0.04394531,-0.125,1.197754,-0.04638672,-0.4121094,0.1318359
917,14.1875,-13.3125,-5.125,-0.05566406,-0.1479492,1.217285,-0.04638672,-0.4121094,0.1318359
918,22.5625,-9.9375,-0.125,-0.05175781,-0.1635742,1.189941,-0.04638672,-0.4121094,0.1318359
919,31.5625,-7.625,4.1875,-0.05175781,-0.159668,1.173828,-0.04638672,-0.4121094,0.1318359
920,37.75,-5.0625,6.8125,-0.04785156,-0.1362305,1.197754,-0.04638672,-0.4121094,0.1318359
921,43.4375,-2.8125,11.25,-0.05957031,-0.1674805,1.233398,-0.04638672,-0.4121094,0.1318359
922,50.875,1.125,15.6875,-0.05175781,-0.1713867,1.20166,-0.04638672,-0.4121094,0.1318359
923,57.0625,5.1875,17.875,-0.02783203,-0.1171875,1.205566,-0.04638672,-0.4121094,0.1318359
924,60.8125,7.875,16.5,-0.03173828,-0.09765625,1.189941,-0.04638672,-0.4121094,0.1318359
925,57.3125,10.9375,6.5625,-0.05175781,-0.03613281,1.209473,-0.04638672,-0.4121094,0.1318359
926,59.9375,12.875,8.125,-0.1035156,-0.07861328,1.146484,-0.04638672,-0.4121094,0.1318359
927,62.5625,11.125,14.6875,-0.08349609,-0.109375,1.126465,-0.04638672,-0.4121094,0.1318359
928,60.8125,9.5,20.3125,-0.1196289,-0.1015625,1.138184,-0.04638672,-0.4121094,0.1318359
929,54.6875,8.375,24.5625,-0.1196289,-0.05908203,1.122559,-0.04638672,-0.4121094,0.1318359
930,48.4375,7.125,27.0625,-0.08740234,-0.06689453,1.122559,-0.04638672,-0.4121094,0.1318359
931,45.625,6.25,27.25,-0.1113281,-0.004882813,1.138184,-0.04638672,-0.4121094,0.1318359
932,45.375,4.5,25.625,-0.1196289,-0.01269531,1.126465,-0.04638672,-0.4121094,0.1318359
933,43.75,1.8125,21.5625,-0.09130859,0.04443359,1.126465,-0.04638672,-0.4121094,0.1318359
934,39.4375,-1.125,15.0625,-0.07177734,0.06396484,1.098633,-0.04638672,-0.4121094,0.1318359
935,31.5,0.0625,8.8125,-0.1035156,0.01757813,1.063477,-0.04638672,-0.4121094,0.1318359
936,22.375,4.6875,6.25,-0.1196289,-0.02441406,1.09082,-0.04638672,-0.4121094,0.1318359
937,13,6.8125,6.5,-0.1391602,-0.02050781,1.063477,-0.04638672,-0.4121094,0.1318359
938,5.5,3.0625,6.4375,-0.1630859,-0.02832031,1.031738,-0.04638672,-0.4121094,0.1318359
939,-1.75,-5.375,7.0625,-0.1513672,-0.01660156,1.027832,-0.04638672,-0.4121094,0.1318359
940,-10.8125,-16.625,9.75,-0.1391602,-0.04394531,1.043457,-0.04638672,-0.4121094,0.1318359
941,-20.25,-26.5,13.0625,-0.1235352,-0.04003906,1.102539,-0.04638672,-0.4121094,0.1318359
942,-30.25,-34.9375,15,-0.08740234,-0.01660156,1.130371,-0.04638672,-0.4121094,0.1318359
943,-39.5625,-40.375,14.125,-0.05566406,-0.03222656,1.25293,-0.04638672,-0.4121094,0.1318359
944,-44.0625,-42.25,12.5625,-0.06347656,-0.05126953,1.335938,-0.04638672,-0.4121094,0.1318359
945,-47,-40,10.6875,-0.04394531,-0.03222656,1.391113,-0.04638672,-0.4121094,0.1318359
946,-47.9375,-35.8125,9.8125,-0.03173828,-0.02050781,1.375488,-0.04638672,-0.4121094,0.1318359
947,-41.125,-33.125,10.125,0,-0.03613281,1.387207,-0.04638672,-0.4121094,0.1318359
948,-30.875,-29.25,8.3125,-0.04785156,0.02148438,1.347656,-0.04638672,-0.4121094,0.1318359
949,-27.0625,-28.25,2.8125,-0.01611328,0.07568359,1.268555,-0.04638672,-0.4121094,0.1318359
950,-29.5,-33.0625,-7,-0.05566406,0.1064453,1.209473,-0.04638672,-0.4121094,0.1318359
951,-34.1875,-42.25,-18.6875,-0.04003906,0.1103516,1.158203,-0.04638672,-0.4121094,0.1318359
952,-34.25,-53.6875,-29.8125,-0.02001953,0.1298828,1.150391,-0.04638672,-0.4121094,0.1318359
953,-29.125,-66.4375,-43.3125,-0.02392578,0.1103516,1.134277,-0.04638672,-0.4121094,0.1318359
954,-32.375,-76.4375,-56.75,0,0.1489258,1.126465,-0.04638672,-0.4121094,0.1318359
955,-37.75,-78.625,-71.4375,0.0234375,0.1064453,1.185547,-0.04638672,-0.4121094,0.1318359
956,-45.375,-75.125,-79.125,0.01123047,0.04833984,1.241211,-0.04638672,-0.4121094,0.1318359
957,-50.5,-68.875,-86.3125,0.007324219,0.02929688,1.300293,-0.04638672,-0.4121094,0.1318359
959,-58,-62.6875,-90.5,0.0234375,-0.03222656,1.34375,-0.04638672,-0.4121094,0.1318359
960,-60.3125,-57.625,-92.375,0.03125,-0.09765625,1.399414,-0.04638672,-0.4121094,0.1318359
961,-51.5625,-47.875,-90.6875,0.05126953,-0.1635742,1.509766,-0.04638672,-0.4121094,0.1318359
962,-35.5,-28.1875,-87.5,0.05908203,-0.1826172,1.537598,-0.04638672,-0.4121094,0.1318359
963,-20.5625,4.6875,-85.4375,0.1469727,-0.1015625,1.470215,-0.04638672,-0.4121094,0.1318359
964,-2,22.5625,-82.625,0.1748047,-0.1826172,1.288574,-0.04638672,-0.4121094,0.1318359
965,15.4375,25.1875,-77.0625,0.1030273,-0.2368164,1.185547,-0.04638672,-0.4121094,0.1318359
966,17.8125,16.3125,-67.625,0.04736328,-0.2177734,1.023926,-0.04638672,-0.4121094,0.1318359
967,4.25,2.8125,-58.125,0.06298828,-0.1713867,0.972168,-0.04638672,-0.4121094,0.1318359
968,-10.4375,-9.6875,-49.25,0.1069336,-0.1826172,0.9326172,-0.04638672,-0.4121094,0.1318359
969,-14.125,-25.75,-38,0.08300781,-0.2485352,0.940918,-0.04638672,-0.4121094,0.1318359
970,-15.9375,-42.25,-25.1875,0.08300781,-0.2216797,0.9760742,-0.04638672,-0.4121094,0.1318359
971,-22.9375,-57.9375,-10.4375,0.1308594,-0.2216797,1.027832,-0.04638672,-0.4121094,0.1318359
972,-24.0625,-65.4375,-1.0625,0.1191406,-0.1674805,1.122559,-0.04638672,-0.4121094,0.1318359
973,-26.25,-62.75,-0.4375,0.1469727,-0.05126953,1.217285,-0.04638672,-0.4121094,0.1318359
974,-28.9375,-54.25,-5.375,0.1704102,-0.02441406,1.25293,-0.04638672,-0.4121094,0.1318359
975,-20.1875,-48,-10.625,0.1748047,-0.08251953,1.276855,-0.04638672,-0.4121094,0.1318359
976,-1.3125,-45.3125,-11.875,0.1508789,-0.06689453,1.276855,-0.04638672,-0.4121094,0.1318359
977,8.5625,-45.4375,-11.625,0.1787109,-0.1054688,1.276855,-0.04638672,-0.4121094,0.1318359
978,11.3125,-42.3125,-13.6875,0.2504883,-0.1132813,1.375488,-0.04638672,-0.4121094,0.1318359
979,19,-29.9375,-9.125,0.3217773,-0.2675781,1.39502,-0.04638672,-0.4121094,0.1318359
980,63.125,-33.875,40.25,0.5966797,-0.6425781,1.387207,-0.04638672,-0.4121094,0.1318359
981,63.75,-12.625,33.1875,0.5209961,-0.1401367,1.296387,-0.04638672,-0.4121094,0.1318359
982,23.6875,43.625,24.0625,0.3696289,-0.125,1.490234,-0.04638672,-0.4121094,0.1318359
983,39.1875,62.5,32.5625,0.3579102,-0.2602539,1.284668,-0.04638672,-0.4121094,0.1318359
984,67.0625,61.0625,34.1875,0.2382813,-0.05908203,1.288574,-0.04638672,-0.4121094,0.1318359
985,62.4375,74.375,29.125,0.2265625,0.01367188,1.391113,-0.04638672,-0.4121094,0.1318359
986,71.3125,91.125,19.6875,0.2583008,-0.04736328,1.442871,-0.04638672,-0.4121094,0.1318359
987,91.25,118.75,13.25,0.2661133,-0.03222656,1.498047,-0.04638672,-0.4121094,0.1318359
988,97.25,150.75,9.8125,0.234375,-0.109375,1.418945,-0.04638672,-0.4121094,0.1318359
989,116.3125,156.4375,11.9375,0.07519531,-0.2021484,0.956543,-0.04638672,-0.4121094,0.1318359
990,169.4375,86.5,10.5,0.1386719,0.1259766,0.3164063,-0.04638672,-0.4121094,0.1318359
991,140.1875,58.5,17.5625,0.09521484,-0.402832,0.4663086,-0.04638672,-0.4121094,0.1318359
992,90.9375,51.625,56.0625,0.1704102,-0.6040039,0.4506836,-0.04638672,-0.4121094,0.1318359
993,27.5625,36.125,77.1875,0.2460938,-0.2368164,0.5297852,-0.04638672,-0.4121094,0.1318359
994,-16,19.8125,68.1875,0.206543,-0.07470703,0.8261719,-0.04638672,-0.4121094,0.1318359
995,-24.1875,14.6875,56.5625,0.1508789,-0.06298828,1.05127,-0.04638672,-0.4121094,0.1318359
996,-19.6875,15.875,49.5625,0.07910156,-0.03222656,1.150391,-0.04638672,-0.4121094,0.1318359
997,-14.75,15,45.625,-0.06787109,-0.004882813,1.209473,-0.04638672,-0.4121094,0.1318359
998,-7,10.25,43.5625,-0.07568359,0.04101563,1.233398,-0.04638672,-0.4121094,0.1318359
999,27.875,29.1875,29.125,-0.02783203,0.237793,1.648438,-0.04638672,-0.4121094,0.1318359
1000,65.9375,34.25,26,-0.07958984,0.04101563,1.098633,-0.04638672,-0.4121094,0.1318359
1001,7.625,-16.625,18.6875,0.1147461,-0.1401367,0.6166992,-0.04638672,-0.4121094,0.1318359
1002,-67.0625,-51.8125,26.75,0.1704102,-0.2949219,0.7626953,-0.04638672,-0.4121094,0.1318359
1003,-78.4375,-67.5625,27.375,0.2739258,-0.02441406,1.027832,-0.04638672,-0.4121094,0.1318359
1004,-79.3125,-62.0625,0.0625,0.2104492,0.3847656,1.098633,-0.04638672,-0.4121094,0.1318359
1005,-89.8125,-54.625,-26.25,0.05908203,-0.03222656,1.446777,-0.04638672,-0.4121094,0.1318359
1006,-88.125,-56.25,-16.0625,0.003417969,-0.3374023,1.569336,-0.04638672,-0.4121094,0.1318359
1007,-54.875,-56.0625,1.625,0.2182617,-0.08642578,1.569336,-0.04638672,-0.4121094,0.1318359
1008,-12.75,-57.125,-6.875,0.4970703,0.4077148,1.588867,-0.04638672,-0.4121094,0.1318359
1009,93.9375,-88.5625,-25.9375,0.1865234,0.1606445,1.533691,-0.04638672,-0.4121094,0.1318359
1010,73.375,-96.75,2.5625,-0.3105469,-0.6772461,1.264648,-0.04638672,-0.4121094,0.1318359
1011,157.5625,-100.875,-24.6875,-0.1552734,-0.1132813,1.549316,-0.04638672,-0.4121094,0.1318359
1012,193.4375,-58.625,15.875,-0.03564453,0.02539063,1.272949,-0.04638672,-0.4121094,0.1318359
1013,136,-70.0625,73.375,0.01953125,-0.1054688,0.7192383,-0.04638672,-0.4121094,0.1318359
1014,83.8125,-56.375,93.4375,0.262207,-0.05126953,1.225098,-0.04638672,-0.4121094,0.1318359
1015,50.9375,-4.5625,90.9375,0.07910156,-0.109375,1.308105,-0.04638672,-0.4121094,0.1318359
1016,39.5625,6.75,94,-0.02001953,-0.04736328,1.29248,-0.04638672,-0.4121094,0.1318359
1017,63.125,-16.125,99.3125,0.0234375,0.04101563,1.359863,-0.04638672,-0.4121094,0.1318359
1018,63.75,-39.375,108.1875,0.06738281,0.09082031,1.3125,-0.04638672,-0.4121094,0.1318359
1019,97.375,-33.375,127.875,0.2661133,0.06787109,1.300293,-0.04638672,-0.4121094,0.1318359
1020,115.6875,-5.5625,127.8125,0.2900391,0.1259766,1.284668,-0.04638672,-0.4121094,0.1318359
1021,125.5625,-10.5,119.625,0.08300781,0.05224609,1.09082,-0.04638672,-0.4121094,0.1318359
1022,151.125,-47.75,117.5,0.07128906,0.06787109,1.09082,-0.04638672,-0.4121094,0.1318359
1024,170.625,-67.6875,99.1875,0.2265625,0.1875,1.075195,-0.04638672,-0.4121094,0.1318359
1025,190.375,-49.75,79.1875,0.2104492,0.2070313,1.122559,-0.04638672,-0.4121094,0.1318359
1026,202.6875,-16.1875,50.8125,0.234375,0.3540039,0.8378906,-0.04638672,-0.4121094,0.1318359
1027,217.25,-18.125,43,0.3535156,0.4389648,0.9208984,-0.04638672,-0.4121094,0.1318359
1028,216.4375,-31.3125,74.875,0.1069336,0.3266602,0.8618164,-0.04638672,-0.4121094,0.1318359
1029,212.625,-44.25,95.625,0.1269531,0.3540039,0.9287109,-0.04638672,-0.4121094,0.1318359
1030,212.625,-14.625,93.625,0.2460938,0.3999023,1.011719,-0.04638672,-0.4121094,0.1318359
1031,209.75,-27.75,89.25,0.07519531,0.4116211,0.9326172,-0.04638672,-0.4121094,0.1318359
1032,209.5625,-101.8125,86.6875,0.1826172,0.4038086,1.221191,-0.04638672,-0.4121094,0.1318359
1033,213.125,-156.1875,81.375,0.3178711,0.4194336,1.280762,-0.04638672,-0.4121094,0.1318359
1034,222.9375,-181.6875,74.875,0.3300781,0.4272461,1.185547,-0.04638672,-0.4121094,0.1318359
1035,230.1875,-178.125,75.3125,0.2783203,0.4389648,1.023926,-0.04638672,-0.4121094,0.1318359
1036,233.4375,-158.875,67.625,0.3100586,0.2958984,1.296387,-0.04638672,-0.4121094,0.1318359
1037,202.6875,-137.625,63.5,0.3535156,0.3149414,1.126465,-0.04638672,-0.4121094,0.1318359
1038,189.5625,-101.5625,51.25,0.3496094,0.2802734,1.019531,-0.04638672,-0.4121094,0.1318359
1039,169.5,-73.625,41.8125,0.4013672,0.2416992,1.086914,-0.04638672,-0.4121094,0.1318359
1040,148.125,-65.8125,40.0625,0.2504883,0.2802734,0.8735352,-0.04638672,-0.4121094,0.1318359
1041,120.8125,-46.4375,44.625,0.425293,0.2958984,0.9487305,-0.04638672,-0.4121094,0.1318359
1042,102.875,-39.75,46,0.2421875,0.3964844,0.956543,-0.04638672,-0.4121094,0.1318359
1043,97.5,-8.4375,48.75,0.3417969,0.4233398,0.671875,-0.04638672,-0.4121094,0.1318359
1044,74.875,-2.3125,60.125,0.5048828,0.3652344,0.8891602,-0.04638672,-0.4121094,0.1318359
1045,65.25,4.75,58.6875,0.4375,0.527832,0.8696289,-0.04638672,-0.4121094,0.1318359
1046,84.9375,12,45.6875,0.4492188,0.5083008,0.9130859,-0.04638672,-0.4121094,0.1318359
1047,104.3125,20.5625,46.3125,0.5327148,0.5161133,0.9013672,-0.04638672,-0.4121094,0.1318359
1048,117.5,29.9375,45.5,0.4731445,0.527832,0.8579102,-0.04638672,-0.4121094,0.1318359
1049,129.625,41,62,0.4692383,0.597168,0.8261719,-0.04638672,-0.4121094,0.1318359
1050,131.4375,57.625,58.5,0.6123047,0.5585938,0.7314453,-0.04638672,-0.4121094,0.1318359
1051,137,63.6875,45.25,0.5844727,0.5390625,0.7192383,-0.04638672,-0.4121094,0.1318359
1052,152.0625,61.875,45.0625,0.4375,0.4814453,0.7114258,-0.04638672,-0.4121094,0.1318359
1053,156.3125,52.5625,38.5625,0.4492188,0.4389648,0.6523438,-0.04638672,-0.4121094,0.1318359
1054,156.0625,22.375,5.375,0.6044922,0.3344727,0.65625,-0.04638672,-0.4121094,0.1318359
1055,150.1875,-14.3125,-28.5,0.9467773,0.4926758,0.2294922,-0.04638672,-0.4121094,0.1318359
1056,152.4375,-46.5,-60.9375,1.547852,0.4814453,2.529785,-0.04638672,-0.4121094,0.1318359
1057,232.9375,-4.0625,-70,0.5009766,0.2724609,1.205566,-0.04638672,-0.4121094,0.1318359
1058,239.4375,18.25,-12,0.3139648,0.3500977,0.7548828,-0.04638672,-0.4121094,0.1318359
1059,189.4375,28.4375,20.3125,0.3935547,0.5703125,0.4584961,-0.04638672,-0.4121094,0.1318359
1060,119.4375,16.5625,54.9375,0.5170898,0.4658203,0.3164063,-0.04638672,-0.4121094,0.1318359
1061,62.3125,-31.0625,88.3125,0.6523438,0.4462891,0.1777344,-0.04638672,-0.4121094,0.1318359
1062,7,-71.4375,89.6875,0.6162109,0.7866211,0.4428711,-0.04638672,-0.4121094,0.1318359
1063,-14.9375,-9.75,216.3125,0.7197266,-0.2099609,1.600586,-0.04638672,-0.4121094,0.1318359
1064,-56.8125,71.75,258.25,0.9746094,0.3730469,1.328125,-0.04638672,-0.4121094,0.1318359
1065,-96.5625,115.375,252.5,0.8833008,0.7670898,0.9643555,-0.04638672,-0.4121094,0.1318359
1066,-113.1875,122.5,231.5625,0.8833008,0.940918,0.7314453,-0.04638672,-0.4121094,0.1318359
1067,-109.5,107.25,201.9375,0.8037109,1.138184,0.5532227,-0.04638672,-0.4121094,0.1318359
1068,-120.5,88.3125,161,0.7197266,1.300293,0.5771484,-0.04638672,-0.4121094,0.1318359
1069,-117.25,75.375,102.125,0.7280273,1.342773,0.7626953,-0.04638672,-0.4121094,0.1318359
1070,-87.9375,76.125,34.875,0.6206055,1.211426,0.8774414,-0.04638672,-0.4121094,0.1318359
1071,-62.5,91.6875,-5.625,0.4414063,1.103516,0.7666016,-0.04638672,-0.4121094,0.1318359
1072,-56.6875,96.9375,-26.5,0.3256836,1.107422,0.5966797,-0.04638672,-0.4121094,0.1318359
1073,-61.875,78.4375,-55.1875,0.3178711,1.118652,0.5019531,-0.04638672,-0.4121094,0.1318359
1074,-60.75,56.9375,-93.1875,0.2421875,0.9760742,0.5771484,-0.04638672,-0.4121094,0.1318359
1075,-56.75,45.75,-116.6875,0.09082031,0.8095703,0.6166992,-0.04638672,-0.4121094,0.1318359
1076,-56.6875,40.25,-122.6875,0.015625,0.7016602,0.5693359,-0.04638672,-0.4121094,0.1318359
1077,-63.1875,32,-119.9375,-0.02392578,0.612793,0.5219727,-0.04638672,-0.4121094,0.1318359
1078,-75.9375,23.3125,-113.625,-0.02392578,0.5546875,0.5610352,-0.04638672,-0.4121094,0.1318359
1079,-89.5,18.0625,-105.3125,-0.03173828,0.4541016,0.6049805,-0.04638672,-0.4121094,0.1318359
1080,-99.5625,18.5,-96.5,-0.1113281,0.4389648,0.6206055,-0.04638672,-0.4121094,0.1318359
1081,-107.6875,16.9375,-87.9375,-0.09570313,0.4116211,0.5888672,-0.04638672,-0.4121094,0.1318359
1082,-112.8125,7.5,-79.5625,-0.05175781,0.4619141,0.5927734,-0.04638672,-0.4121094,0.1318359
1083,-83.75,-7,-77,-0.01611328,0.5390625,0.65625,-0.04638672,-0.4121094,0.1318359
1084,-47.3125,-17.4375,-85.6875,0.09521484,0.7246094,0.7827148,-0.04638672,-0.4121094,0.1318359
1085,-22.0625,-13.625,-114.5,0.1748047,0.8637695,0.8261719,-0.04638672,-0.4121094,0.1318359
1086,-28.9375,-18.1875,-139.6875,0.2861328,0.7016602,0.8813477,-0.04638672,-0.4121094,0.1318359
1087,-26.5625,-15.3125,-139.3125,0.2739258,0.4926758,1.043457,-0.04638672,-0.4121094,0.1318359
1089,-9.5,-3.5,-123.9375,0.3100586,0.3652344,1.146484,-0.04638672,-0.4121094,0.1318359
1090,10.75,9,-111.1875,0.2978516,0.3613281,1.059082,-0.04638672,-0.4121094,0.1318359
1091,17.4375,10.5,-103.625,0.3457031,0.3110352,0.9487305,-0.04638672,-0.4121094,0.1318359
1092,15.3125,4.625,-93.9375,0.2939453,0.1489258,0.9013672,-0.04638672,-0.4121094,0.1318359
1093,15.5,0.875,-75.9375,0.2504883,0.04833984,0.9130859,-0.04638672,-0.4121094,0.1318359
1094,21.125,-3.3125,-55.25,0.2861328,0.01367188,0.8579102,-0.04638672,-0.4121094,0.1318359
1095,28.4375,-9.625,-36.625,0.3217773,0.01367188,0.8183594,-0.04638672,-0.4121094,0.1318359
1096,33.875,-15.3125,-21.5625,0.2900391,0.001953125,0.7788086,-0.04638672,-0.4121094,0.1318359
1097,30.25,-21.9375,-5.4375,0.2861328,0.05615234,0.6323242,-0.04638672,-0.4121094,0.1318359
1098,15.0625,-32.25,16,0.3017578,0.07177734,0.5019531,-0.04638672,-0.4121094,0.1318359
1099,-6.6875,-43.25,37.375,0.3657227,0.1064453,0.5927734,-0.04638672,-0.4121094,0.1318359
1100,-27.625,-51.375,50.875,0.4614258,0.1298828,0.65625,-0.04638672,-0.4121094,0.1318359
1101,-38.4375,-49.875,55.1875,0.4848633,0.1450195,0.8022461,-0.04638672,-0.4121094,0.1318359
1102,-35.625,-40.8125,56.5,0.5605469,0.1298828,0.9287109,-0.04638672,-0.4121094,0.1318359
1103,-25.1875,-28.4375,59.0625,0.5410156,0.07958984,0.9682617,-0.04638672,-0.4121094,0.1318359
1104,-17.25,-13.5625,62.125,0.5688477,0.08740234,0.9208984,-0.04638672,-0.4121094,0.1318359
1105,-19.75,-3,66.5625,0.5087891,0.1450195,0.8061523,-0.04638672,-0.4121094,0.1318359
1106,-32.5,-1.8125,70.3125,0.4931641,0.2919922,0.6484375,-0.04638672,-0.4121094,0.1318359
1107,-43.25,-13.1875,66.5625,0.4892578,0.4697266,0.5175781,-0.04638672,-0.4121094,0.1318359
1108,-60.125,-33.1875,54.8125,0.5209961,0.5625,0.5415039,-0.04638672,-0.4121094,0.1318359
1109,-77.125,-51.5625,41.6875,0.5209961,0.5585938,0.644043,-0.04638672,-0.4121094,0.1318359
1110,-105.1875,-35.625,-2.8125,0.8989258,1.516602,1.288574,-0.04638672,-0.4121094,0.1318359
1111,-170.75,54.5,-183.9375,1.368652,2.753418,1.719238,-0.04638672,-0.4121094,0.1318359
1112,-165.125,82.5,-261.875,0.684082,1.064941,1.011719,-0.04638672,-0.4121094,0.1318359
1113,-95.625,2,-229.375,0.2104492,0.2456055,0.6679688,-0.04638672,-0.4121094,0.1318359
1114,-32.5,-82,-125.75,-0.1035156,-0.09765625,0.8061523,-0.04638672,-0.4121094,0.1318359
1115,-31.8125,-91,-19.375,-0.09570313,0.06787109,1.098633,-0.04638672,-0.4121094,0.1318359
1116,-66.25,-65.125,16.625,0.1665039,0.4775391,1.146484,-0.04638672,-0.4121094,0.1318359
1117,-85.125,-54.8125,5.4375,0.09521484,0.5742188,1.067383,-0.04638672,-0.4121094,0.1318359
1118,-84.25,-56.4375,5.625,-0.08349609,0.4775391,0.9326172,-0.04638672,-0.4121094,0.1318359
1119,-94.8125,-70,24.3125,-0.175293,0.5625,0.6918945,-0.04638672,-0.4121094,0.1318359
1120,-114.375,-100.625,33.125,-0.05957031,0.6630859,0.7509766,-0.04638672,-0.4121094,0.1318359
1121,-136,-127.625,24.9375,0.0234375,0.8095703,0.8378906,-0.04638672,-0.4121094,0.1318359
1122,-163,-144.375,3.625,0.2382813,0.8833008,1.11084,-0.04638672,-0.4121094,0.1318359
1123,-157.4375,-151.75,-20.0625,0.3256836,0.7827148,1.339844,-0.04638672,-0.4121094,0.1318359
1124,-119.4375,-149.1875,-30.375,0.3139648,0.5703125,1.533691,-0.04638672,-0.4121094,0.1318359
1125,-77.125,-132.5,-24.75,0.2939453,0.4272461,1.537598,-0.04638672,-0.4121094,0.1318359
1126,-52.875,-107.0625,-19.625,0.3735352,0.4619141,1.505859,-0.04638672,-0.4121094,0.1318359
1127,-37.1875,-72.75,-27.125,0.3378906,0.4350586,1.478027,-0.04638672,-0.4121094,0.1318359
1128,-11,-53.5,-33.125,0.2026367,0.3652344,1.217285,-0.04638672,-0.4121094,0.1318359
1129,22.25,-49.0625,-29.125,0.1508789,0.3925781,1.031738,-0.04638672,-0.4121094,0.1318359
1130,77.0625,-51.3125,-31.3125,0.07519531,0.4428711,0.9130859,-0.04638672,-0.4121094,0.1318359
1131,8.875,-112.375,-40.3125,0.07910156,0.890625,0.284668,-0.04638672,-0.4121094,0.1318359
1132,-6.1875,-103.875,-85.3125,0.06738281,0.5546875,0.7353516,-0.04638672,-0.4121094,0.1318359
1133,39.25,-111.1875,-93.4375,0.2583008,0.3964844,0.8618164,-0.04638672,-0.4121094,0.1318359
1134,73.875,-125.875,-101.875,0.3178711,0.3500977,0.7314453,-0.04638672,-0.4121094,0.1318359
1135,79.25,-137.875,-99.125,0.4052734,0.2573242,0.8144531,-0.04638672,-0.4121094,0.1318359
1136,84.125,-144.625,-93,0.5327148,0.2919922,0.9248047,-0.04638672,-0.4121094,0.1318359
1137,72.1875,-156.875,-88.3125,0.65625,0.4619141,0.8222656,-0.04638672,-0.4121094,0.1318359
1138,51.4375,-165.25,-90.3125,0.7714844,0.5893555,0.9682617,-0.04638672,-0.4121094,0.1318359
1139,50.75,-152.3125,-98.75,0.8632813,0.6899414,1.205566,-0.04638672,-0.4121094,0.1318359
1140,47.875,-117.625,-121,0.9545898,0.890625,1.229492,-0.04638672,-0.4121094,0.1318359
1141,18.9375,-75.75,-164.75,1.038086,0.9296875,1.233398,-0.04638672,-0.4121094,0.1318359
1142,-1.75,-32.5625,-207,0.9667969,0.7402344,1.197754,-0.04638672,-0.4121094,0.1318359
1143,14.875,1.0625,-227.625,0.7875977,0.5317383,1.067383,-0.04638672,-0.4121094,0.1318359
1144,33.375,22.5625,-244.8125,0.6679688,0.5351563,0.8300781,-0.04638672,-0.4121094,0.1318359
1145,54.75,13.5,-264.375,0.5288086,0.5776367,0.4428711,-0.04638672,-0.4121094,0.1318359
1146,82.1875,-17.4375,-284.75,0.4013672,0.6396484,0.2729492,-0.04638672,-0.4121094,0.1318359
1147,124.625,-55.5,-301.8125,0.3256836,0.5776367,0.1542969,-0.04638672,-0.4121094,0.1318359
1148,192.4375,-119.5,-300.5625,0.4375,0.5546875,0.015625,-0.04638672,-0.4121094,0.1318359
1149,219.25,-170.125,-298.125,0.5727539,0.7055664,0.1582031,-0.04638672,-0.4121094,0.1318359
1150,208.6875,-191,-322.25,0.7558594,0.940918,0.3676758,-0.04638672,-0.4121094,0.1318359
1151,218.9375,-191.5,-368.125,0.7915039,1.053223,0.6401367,-0.04638672,-0.4121094,0.1318359
1152,251.5625,-181.625,-392.5625,0.7675781,0.7944336,0.715332,-0.04638672,-0.4121094,0.1318359
1154,275.125,-173.75,-395.625,0.6206055,0.5083008,0.5771484,-0.04638672,-0.4121094,0.1318359
1155,296.5,-176.0625,-378.0625,0.480957,0.2724609,0.4072266,-0.04638672,-0.4121094,0.1318359
1156,295.125,-189.375,-336.1875,0.2182617,0.2651367,-0.09423828,-0.04638672,-0.4121094,0.1318359
1157,260.6875,-229.75,-304.375,0.2026367,0.4077148,-0.3115234,-0.04638672,-0.4121094,0.1318359
1158,234.0625,-268.4375,-284.25,0.1347656,0.581543,-0.1972656,-0.04638672,-0.4121094,0.1318359
1159,233.125,-288.25,-266,0.1191406,0.7167969,-0.1064453,-0.04638672,-0.4121094,0.1318359
1160,244.9375,-304.375,-256.1875,0.2939453,0.9101563,-0.07080078,-0.04638672,-0.4121094,0.1318359
1161,245.875,-284.1875,-214.125,0.2861328,0.6899414,0.1777344,-0.04638672,-0.4121094,0.1318359
1162,164.4375,-276.5625,-137.75,0.03125,1.300293,-0.4736328,-0.04638672,-0.4121094,0.1318359
1163,-83.75,-294.4375,76.625,0.3178711,1.783203,-0.2763672,-0.04638672,-0.4121094,0.1318359
1164,-83.25,-294.875,9.8125,1.368652,1.547852,1.019531,-0.04638672,-0.4121094,0.1318359
1165,32.9375,-231.4375,-83.25,1.12207,1.416504,1.786621,-0.04638672,-0.4121094,0.1318359
1166,128.8125,-146.5,-138.5,0.831543,1.28125,1.173828,-0.04638672,-0.4121094,0.1318359
1167,134.75,-122.5,-158.5,0.5449219,0.9833984,0.5019531,-0.04638672,-0.4121094,0.1318359
1168,146.25,-121.9375,-141.6875,0.1665039,0.6396484,0.4306641,-0.04638672,-0.4121094,0.1318359
1169,165.5625,-115.25,-98.75,0.01953125,0.5083008,0.300293,-0.04638672,-0.4121094,0.1318359
1170,158.9375,-111.9375,-51.1875,-0.02783203,0.5585938,0.08691406,-0.04638672,-0.4121094,0.1318359
1171,146.3125,-111.1875,-7.125,-0.06787109,0.5664063,0.05126953,-0.04638672,-0.4121094,0.1318359
1172,148.625,-108.3125,37.1875,-0.02392578,0.7094727,0.07128906,-0.04638672,-0.4121094,0.1318359
1173,155.9375,-109.5,71.875,0.08300781,0.7749023,0.1503906,-0.04638672,-0.4121094,0.1318359
1174,158.125,-101.625,90.5625,0.1987305,0.8945313,0.2729492,-0.04638672,-0.4121094,0.1318359
1175,159.6875,-83.6875,103.6875,0.3256836,0.9682617,0.3793945,-0.04638672,-0.4121094,0.1318359
1176,139.3125,-56.5625,119.9375,0.4375,0.9990234,0.4267578,-0.04638672,-0.4121094,0.1318359
1177,129.3125,-37.125,133.75,0.5449219,0.9873047,0.4033203,-0.04638672,-0.4121094,0.1318359
1178,134.9375,-17.5625,141.625,0.5087891,0.9912109,0.4345703,-0.04638672,-0.4121094,0.1318359
1179,151.75,3.6875,134.5,0.4013672,1.041504,0.1899414,-0.04638672,-0.4121094,0.1318359
1180,165.875,6.9375,117.625,0.2504883,1.219238,-0.1894531,-0.04638672,-0.4121094,0.1318359
1181,166.1875,-6.125,93.5,0.234375,1.130371,-0.1894531,-0.04638672,-0.4121094,0.1318359
1182,170,-6.125,93.125,0.1865234,0.8330078,-0.1298828,-0.04638672,-0.4121094,0.1318359
1183,152.375,-5.5625,118.875,0.2421875,1.00293,-0.2011719,-0.04638672,-0.4121094,0.1318359
1184,123.0625,-12.3125,126.75,0.3417969,1.176758,-0.05859375,-0.04638672,-0.4121094,0.1318359
1185,98.875,-15.3125,117,0.3657227,1.219238,0.1147461,-0.04638672,-0.4121094,0.1318359
1186,80.625,-4.6875,102.75,0.453125,1.253906,0.2807617,-0.04638672,-0.4121094,0.1318359
1187,78.125,7.375,89.6875,0.4291992,1.265625,0.2607422,-0.04638672,-0.4121094,0.1318359
1188,75.875,11.5625,72.8125,0.3696289,1.23877,0.07519531,-0.04638672,-0.4121094,0.1318359
1189,73.25,12.75,55.3125,0.3178711,1.188477,0,-0.04638672,-0.4121094,0.1318359
1190,85.6875,9,40.5625,0.2460938,1.064941,-0.04296875,-0.04638672,-0.4121094,0.1318359
1191,101.75,1.6875,29.125,0.1665039,0.956543,-0.1850586,-0.04638672,-0.4121094,0.1318359
1192,115.4375,-11.3125,17,0.09082031,0.9257813,-0.2602539,-0.04638672,-0.4121094,0.1318359
1193,133.4375,-27.125,-0.75,0.1347656,0.921875,-0.1733398,-0.04638672,-0.4121094,0.1318359
1194,170.8125,-39.0625,-21.9375,0.1147461,0.8754883,-0.1103516,-0.04638672,-0.4121094,0.1318359
1195,220.25,-50.25,-40.5,0.1030273,0.871582,-0.1416016,-0.04638672,-0.4121094,0.1318359
1196,258.4375,-65.5,-52.9375,0.1269531,0.8330078,-0.1894531,-0.04638672,-0.4121094,0.1318359
1197,272.1875,-80.8125,-51.9375,0.1108398,0.7631836,-0.2998047,-0.04638672,-0.4121094,0.1318359
1198,280.875,-93.25,-42.25,0.1069336,0.8330078,-0.3510742,-0.04638672,-0.4121094,0.1318359
1199,301,-102.5625,-36.9375,0.1230469,0.8056641,-0.3115234,-0.04638672,-0.4121094,0.1318359
1200,317.1875,-107,-37.25,0.1069336,0.8095703,-0.3393555,-0.04638672,-0.4121094,0.1318359
1201,322.875,-118.25,-41.625,0.08300781,0.7905273,-0.4975586,-0.04638672,-0.4121094,0.1318359
1202,320.6875,-122.25,-45.25,0.1508789,0.7592773,-0.6992188,-0.04638672,-0.4121094,0.1318359
1203,125.8125,-99.375,9.75,-0.03173828,1.006836,-1.703125,-0.04638672,-0.4121094,0.1318359
1204,-19.3125,-167.875,17.8125,0.3618164,0.7441406,-1.098145,-0.04638672,-0.4121094,0.1318359
1205,44.875,-179,-26.1875,0.1704102,0.4350586,-0.1772461,-0.04638672,-0.4121094,0.1318359
1206,7.625,-139.4375,-2.5625,0.2822266,0.1914063,-0.2641602,-0.04638672,-0.4121094,0.1318359
1207,68.0625,-141.5,20.5625,0.3579102,0.5507813,-0.6240234,-0.04638672,-0.4121094,0.1318359
1208,65.125,-143.0625,9.8125,0.2700195,0.6821289,-0.6123047,-0.04638672,-0.4121094,0.1318359
1209,62.9375,-136.875,-10.875,0.2421875,0.6088867,-0.7226563,-0.04638672,-0.4121094,0.1318359
1210,42.375,-140.8125,-17.0625,0.2104492,0.4311523,-0.6518555,-0.04638672,-0.4121094,0.1318359
1211,42.75,-131.5,-11.25,0.1787109,0.2958984,-0.4541016,-0.04638672,-0.4121094,0.1318359
1212,34.875,-115.875,-0.25,0.1943359,0.4462891,-0.9165039,-0.04638672,-0.4121094,0.1318359
1213,14.0625,-109,12.125,0.2739258,0.4580078,-0.4580078,-0.04638672,-0.4121094,0.1318359
1214,6.625,-85.8125,23.625,0.234375,0.5507813,-0.2563477,-0.04638672,-0.4121094,0.1318359
1215,11.3125,-56.8125,38.875,0.2304688,0.6977539,-0.2446289,-0.04638672,-0.4121094,0.1318359
1216,18.4375,-32.5,46.8125,0.2104492,0.871582,-0.2998047,-0.04638672,-0.4121094,0.1318359
1217,24.4375,-8.1875,45.25,0.1508789,0.8520508,-0.3076172,-0.04638672,-0.4121094,0.1318359
1219,36.375,14.125,40,0.07519531,0.7944336,-0.5649414,-0.04638672,-0.4121094,0.1318359
1220,23.375,25.75,41.125,0.01953125,0.6474609,-0.7861328,-0.04638672,-0.4121094,0.1318359
1221,8.3125,26.8125,34.5,0.01953125,0.6396484,-0.7744141,-0.04638672,-0.4121094,0.1318359
1222,-7.3125,28.3125,31.25,0.05126953,0.5585938,-0.7861328,-0.04638672,-0.4121094,0.1318359
1223,-16.125,31.4375,35.0625,0.1943359,0.5854492,-0.6635742,-0.04638672,-0.4121094,0.1318359
1224,-15,40.125,33.125,0.2900391,0.7363281,-0.6162109,-0.04638672,-0.4121094,0.1318359
1225,-11.9375,47.5625,32.125,0.2421875,0.7749023,-0.5922852,-0.04638672,-0.4121094,0.1318359
1226,-4.875,52.3125,30.375,0.3417969,0.9023438,-0.5922852,-0.04638672,-0.4121094,0.1318359
1227,-0.4375,59,16.125,0.3657227,0.890625,-0.6435547,-0.04638672,-0.4121094,0.1318359
1228,-1.4375,60.0625,6.5,0.3017578,0.8056641,-0.7504883,-0.04638672,-0.4121094,0.1318359
1229,-8.5625,61.625,5.25,0.3378906,0.7983398,-0.7070313,-0.04638672,-0.4121094,0.1318359
1230,-13.1875,53.9375,-5.5625,0.3139648,0.871582,-0.7783203,-0.04638672,-0.4121094,0.1318359
1231,-17.625,34.875,-22,0.2783203,0.90625,-0.8574219,-0.04638672,-0.4121094,0.1318359
1232,-42.125,35.875,-23.875,0.465332,1.107422,-0.675293,-0.04638672,-0.4121094,0.1318359
1233,-90.625,38.25,-47.9375,0.6640625,1.285156,-0.6201172,-0.04638672,-0.4121094,0.1318359
1234,-193.6875,71.25,-73.3125,0.5605469,1.04541,-0.3276367,-0.04638672,-0.4121094,0.1318359
1235,-181.875,77.5,-72.75,0.2543945,0.6435547,-0.3828125,-0.04638672,-0.4121094,0.1318359
1236,-176.4375,75.5625,-58.625,-0.2587891,0.2685547,-0.7543945,-0.04638672,-0.4121094,0.1318359
1237,-154.8125,25.0625,-41.8125,-0.5849609,0.08349609,-0.8574219,-0.04638672,-0.4121094,0.1318359
1238,-40.5,-2.25,-17.0625,-0.7246094,-0.2641602,-0.6479492,-0.04638672,-0.4121094,0.1318359
1239,26.875,-23.9375,11.6875,-0.3901367,0.09082031,-0.8691406,-0.04638672,-0.4121094,0.1318359
1240,12.0625,-29.625,23.75,0.03955078,0.4814453,-0.6000977,-0.04638672,-0.4121094,0.1318359
1241,7.125,-21.125,9.4375,0.2504883,0.6513672,-0.4106445,-0.04638672,-0.4121094,0.1318359
1242,-1.5625,-16.1875,-10,0.1943359,0.7246094,-0.4775391,-0.04638672,-0.4121094,0.1318359
1243,3.3125,-13.625,-15.125,0.07519531,0.6743164,-0.4658203,-0.04638672,-0.4121094,0.1318359
1244,8.125,-14.125,-8.8125,0.04736328,0.6474609,-0.4223633,-0.04638672,-0.4121094,0.1318359
1245,14.9375,-12.0625,-7.375,0.1147461,0.7788086,-0.3945313,-0.04638672,-0.4121094,0.1318359
1246,10.625,-8,-7.3125,0.1469727,0.8520508,-0.5092773,-0.04638672,-0.4121094,0.1318359
1247,-1.5625,-5.6875,-10.0625,0.1826172,0.8833008,-0.5605469,-0.04638672,-0.4121094,0.1318359
1248,-11.4375,-4.1875,-15.75,0.1308594,0.7788086,-0.6435547,-0.04638672,-0.4121094,0.1318359
1249,-28.5,-2.4375,-20.8125,0.1547852,0.7094727,-0.7226563,-0.04638672,-0.4121094,0.1318359
1250,-43.9375,-1.3125,-21.5625,0.1069336,0.6821289,-0.7661133,-0.04638672,-0.4121094,0.1318359
1251,-64.625,1.8125,-13.3125,0.07910156,0.6782227,-0.7348633,-0.04638672,-0.4121094,0.1318359
1252,-77.625,6.3125,-12.5,0.1308594,0.7592773,-0.6953125,-0.04638672,-0.4121094,0.1318359
1253,-97.5,15.375,-3.6875,0.222168,0.90625,-0.7070313,-0.04638672,-0.4121094,0.1318359
1254,-112,23.8125,-1.0625,0.2822266,0.9643555,-0.5214844,-0.04638672,-0.4121094,0.1318359
1255,-113.0625,29.625,-2.875,0.1904297,0.972168,-0.5488281,-0.04638672,-0.4121094,0.1318359
1256,-105.3125,28,-5.875,0.234375,0.9448242,-0.4541016,-0.04638672,-0.4121094,0.1318359
1257,-95.625,26.625,-11.1875,0.2026367,0.8481445,-0.4936523,-0.04638672,-0.4121094,0.1318359
1258,-88.9375,22.4375,-20.5625,0.2143555,0.8134766,-0.434082,-0.04638672,-0.4121094,0.1318359
1259,-70.375,17.875,-29.625,0.222168,0.8212891,-0.390625,-0.04638672,-0.4121094,0.1318359
1260,-70.0625,16.375,-33.4375,0.3061523,0.921875,-0.4067383,-0.04638672,-0.4121094,0.1318359
1261,-78.4375,19.6875,-35.0625,0.3857422,1.010742,-0.2763672,-0.04638672,-0.4121094,0.1318359
1262,-73.5,30.125,-42.0625,0.409668,1.072266,-0.2329102,-0.04638672,-0.4121094,0.1318359
1263,-73.625,44.6875,-42.0625,0.3139648,0.9682617,-0.3037109,-0.04638672,-0.4121094,0.1318359
1264,-76.5,53.375,-36.9375,0.2421875,1.021973,-0.4145508,-0.04638672,-0.4121094,0.1318359
1265,-79.75,58.5625,-35.5625,0.2143555,0.90625,-0.418457,-0.04638672,-0.4121094,0.1318359
1266,-77.375,63.875,-36.125,0.1665039,0.8134766,-0.4223633,-0.04638672,-0.4121094,0.1318359
1267,-81.75,68.6875,-33.1875,0.07128906,0.7749023,-0.5371094,-0.04638672,-0.4121094,0.1318359
1268,-109.1875,72.875,-28,0.1508789,0.9448242,-0.4619141,-0.04638672,-0.4121094,0.1318359
1269,-134.8125,77.125,-24.875,0.1904297,0.9604492,-0.4384766,-0.04638672,-0.4121094,0.1318359
1270,-137.5625,78.25,-18.75,0.1865234,0.9487305,-0.2763672,-0.04638672,-0.4121094,0.1318359
1271,-142.9375,78.9375,-16.1875,0.1748047,1.053223,-0.3037109,-0.04638672,-0.4121094,0.1318359
1272,-191.1875,98.375,-11.75,0.222168,1.099609,-0.331543,-0.04638672,-0.4121094,0.1318359
1273,-205.0625,97.9375,-0.9375,0.1508789,1.064941,-0.315918,-0.04638672,-0.4121094,0.1318359
1274,-235.625,106.875,-3.5,0.1704102,1.172852,-0.3510742,-0.04638672,-0.4121094,0.1318359
1275,-308.75,122.5625,-11.0625,0.1943359,1.099609,-0.2680664,-0.04638672,-0.4121094,0.1318359
1276,-350.9375,134.8125,-1.75,0.1147461,0.8598633,-0.08642578,-0.04638672,-0.4121094,0.1318359
1277,-374.8125,156.3125,22.6875,0.1147461,0.8173828,-0.0546875,-0.04638672,-0.4121094,0.1318359
1278,-372.625,150.0625,41.5625,0.06738281,0.7128906,0.06738281,-0.04638672,-0.4121094,0.1318359
1279,-329.375,127.25,49.1875,0.06738281,0.8481445,0.02783203,-0.04638672,-0.4121094,0.1318359
1280,-263.8125,103.875,49.625,0.07910156,0.9912109,0.1303711,-0.04638672,-0.4121094,0.1318359
1281,-248.3125,104.375,55.25,0.04736328,1.021973,0.1977539,-0.04638672,-0.4121094,0.1318359
1282,-203.875,99.25,61.9375,-0.03564453,1.018555,-0.05078125,-0.04638672,-0.4121094,0.1318359
1284,-149.75,77.5625,64.9375,-0.190918,0.8442383,-0.046875,-0.04638672,-0.4121094,0.1318359
1285,-110.5,53.875,60.875,-0.1713867,0.8095703,-0.05078125,-0.04638672,-0.4121094,0.1318359
1286,-93.0625,42.5,52.9375,0.02734375,0.7788086,0.05908203,-0.04638672,-0.4121094,0.1318359
1287,-82.125,37,41.875,0.3217773,0.855957,0.4624023,-0.04638672,-0.4121094,0.1318359
1288,-50.5,61.125,25.0625,0.3657227,0.8330078,0.5888672,-0.04638672,-0.4121094,0.1318359
1289,-28.6875,76.75,20.875,0.2822266,0.7788086,0.08300781,-0.04638672,-0.4121094,0.1318359
1290,-26.5625,71.125,24.375,0.1230469,0.6704102,-0.1376953,-0.04638672,-0.4121094,0.1318359
1291,-29,55.375,39.3125,-0.03173828,0.7749023,-0.3554688,-0.04638672,-0.4121094,0.1318359
1292,-38.1875,39.375,66.8125,0.1108398,0.8291016,-0.2167969,-0.04638672,-0.4121094,0.1318359
1293,-43.4375,32.75,89.8125,0.3535156,0.8676758,0.05126953,-0.04638672,-0.4121094,0.1318359
1294,-46.1875,37.5625,96.375,0.5927734,0.8676758,0.1699219,-0.04638672,-0.4121094,0.1318359
1295,-56.1875,56.5,94.8125,0.6601563,0.90625,0.4306641,-0.04638672,-0.4121094,0.1318359
1296,-63.0625,68.6875,98.375,0.5131836,0.9604492,0.1420898,-0.04638672,-0.4121094,0.1318359
1297,-85.375,74.25,110.0625,0.4770508,0.921875,0.2607422,-0.04638672,-0.4121094,0.1318359
1298,-91.375,94.75,119,0.465332,0.9101563,0.3203125,-0.04638672,-0.4121094,0.1318359
1299,-79.3125,95.4375,116.5,0.2861328,0.9643555,0.1147461,-0.04638672,-0.4121094,0.1318359
1300,-65,81.8125,103.5625,0.2739258,0.9604492,0.01953125,-0.04638672,-0.4121094,0.1318359
1301,-62.0625,72.9375,89.125,0.3378906,0.8793945,0.3041992,-0.04638672,-0.4121094,0.1318359
1302,-30.8125,81.0625,84.875,0.3017578,0.7207031,0.300293,-0.04638672,-0.4121094,0.1318359
1303,-24.6875,71.625,80.125,0.3535156,0.7246094,0.3203125,-0.04638672,-0.4121094,0.1318359
1304,-20.3125,80.625,94.875,0.4414063,0.6938477,0.4467773,-0.04638672,-0.4121094,0.1318359
1305,1.375,80.3125,109.625,0.3857422,0.5585938,0.4624023,-0.04638672,-0.4121094,0.1318359
1306,15.375,92.6875,138,0.3378906,0.6860352,0.5058594,-0.04638672,-0.4121094,0.1318359
1307,21.25,83,178.8125,0.262207,0.8676758,-0.003417969,-0.04638672,-0.4121094,0.1318359
1308,-6.4375,55.3125,167.875,0.2143555,0.8793945,0.3637695,-0.04638672,-0.4121094,0.1318359
1309,0.5625,50.4375,151.75,0.3618164,0.9794922,0.3041992,-0.04638672,-0.4121094,0.1318359
1310,-18.5,40.8125,115.0625,0.409668,0.9990234,0.2885742,-0.04638672,-0.4121094,0.1318359
1311,-23.5,34.9375,85.6875,0.3457031,0.8676758,0.4267578,-0.04638672,-0.4121094,0.1318359
1312,-26.5625,31.125,68.75,0.3857422,0.9257813,0.3676758,-0.04638672,-0.4121094,0.1318359
1313,-42.0625,25.75,61.625,0.3339844,0.7167969,0.3081055,-0.04638672,-0.4121094,0.1318359
1314,-73.625,11.0625,59.125,0.3896484,0.8637695,0.1225586,-0.04638672,-0.4121094,0.1318359
1315,-95.1875,-3.5,70.8125,0.262207,0.6938477,0.1899414,-0.04638672,-0.4121094,0.1318359
1316,-97.4375,-22.5,111.3125,0.5727539,1.072266,0.2412109,-0.04638672,-0.4121094,0.1318359
1317,-92.75,-35.625,125.5,0.4135742,0.2495117,0.3398438,-0.04638672,-0.4121094,0.1318359
1318,-95.0625,-57.3125,140,0.5170898,0.887207,0.3164063,-0.04638672,-0.4121094,0.1318359
1319,-89.8125,-64.8125,152.625,0.4731445,0.6782227,0.5693359,-0.04638672,-0.4121094,0.1318359
1320,-73.5625,-66,173.9375,0.5449219,0.8212891,0.6401367,-0.04638672,-0.4121094,0.1318359
1321,-57.9375,-61.3125,132.6875,0.5488281,1.431641,0.4780273,-0.04638672,-0.4121094,0.1318359
1322,-64.75,-64,95,0.5844727,1.227051,0.5219727,-0.04638672,-0.4121094,0.1318359
1323,-54.625,-63.1875,105.1875,0.875,1.227051,0.5849609,-0.04638672,-0.4121094,0.1318359
1324,-45.1875,-49.5625,64.8125,0.7636719,0.9833984,0.6879883,-0.04638672,-0.4121094,0.1318359
1325,-31.5625,-54.5625,73.4375,0.7041016,-0.08642578,0.284668,-0.04638672,-0.4121094,0.1318359
1326,-33.9375,-44,36.3125,0.5527344,0.8212891,0.699707,-0.04638672,-0.4121094,0.1318359
1327,-4.1875,-53.25,51.25,0.222168,-0.4765625,0.08691406,-0.04638672,-0.4121094,0.1318359
1328,-32.8125,-39.75,13.375,0.5566406,0.6474609,0.8457031,-0.04638672,-0.4121094,0.1318359
1329,-8.1875,-47.625,57.6875,0.7954102,1.049316,0.1777344,-0.04638672,-0.4121094,0.1318359
1330,-19.4375,-33.5,16.5625,0.5009766,0.7553711,0.6323242,-0.04638672,-0.4121094,0.1318359
1331,-29.8125,-44.8125,14.875,0.644043,0.7207031,0.3398438,-0.04638672,-0.4121094,0.1318359
1332,-42.6875,-57.8125,41.3125,0.9545898,1.253906,0.6918945,-0.04638672,-0.4121094,0.1318359
1333,-22.75,-47.875,29.25,0.5805664,0.3540039,0.4306641,-0.04638672,-0.4121094,0.1318359
1334,-50.375,-53.8125,33.25,0.6679688,0.6552734,0.7666016,-0.04638672,-0.4121094,0.1318359
1335,-48.5625,-42.3125,51.375,0.7080078,0.855957,0.5966797,-0.04638672,-0.4121094,0.1318359
1336,-53.1875,-38.4375,52.75,0.6401367,0.9990234,0.5927734,-0.04638672,-0.4121094,0.1318359
1337,-57.375,-34.125,44.375,0.7753906,0.8212891,0.612793,-0.04638672,-0.4121094,0.1318359
1338,-65.8125,-27.75,39.625,0.8789063,0.5317383,0.5454102,-0.04638672,-0.4121094,0.1318359
1339,-66.625,-24.125,20.625,0.9228516,0.8134766,0.4150391,-0.04638672,-0.4121094,0.1318359
1340,-51.6875,-16.9375,9,0.9111328,0.5742188,0.5571289,-0.04638672,-0.4121094,0.1318359
1341,-50.8125,-6.0625,11.3125,0.9506836,0.4658203,0.699707,-0.04638672,-0.4121094,0.1318359
1342,-46.1875,11.9375,16.375,0.8632813,0.5351563,0.6206055,-0.04638672,-0.4121094,0.1318359
1343,-36.625,21.8125,5.75,0.65625,0.7094727,0.5019531,-0.04638672,-0.4121094,0.1318359
1344,-44.4375,19,-1.25,0.6484375,0.5664063,0.4941406,-0.04638672,-0.4121094,0.1318359
1345,-31.625,27.75,-5.125,0.6323242,0.6240234,0.4741211,-0.04638672,-0.4121094,0.1318359
1346,-26.9375,28.875,-17.9375,0.5727539,0.4887695,0.5375977,-0.04638672,-0.4121094,0.1318359
1347,-24,26.875,-8.0625,0.6484375,0.3847656,0.4902344,-0.04638672,-0.4121094,0.1318359
1349,-10.0625,28.375,8.5,0.6123047,0.4311523,0.4545898,-0.04638672,-0.4121094,0.1318359
1350,-11.125,28.8125,22.9375,0.6723633,0.3652344,0.4741211,-0.04638672,-0.4121094,0.1318359
1351,-18.9375,33.125,40.3125,0.7436523,0.4116211,0.6005859,-0.04638672,-0.4121094,0.1318359
1352,-15.1875,38.4375,40.5625,0.6801758,0.5239258,0.5136719,-0.04638672,-0.4121094,0.1318359
1353,-15,40,40.0625,0.7041016,0.4853516,0.5136719,-0.04638672,-0.4121094,0.1318359
1354,-12,45.6875,44,0.7080078,0.4541016,0.4545898,-0.04638672,-0.4121094,0.1318359
1355,-13.6875,49,50.25,0.7001953,0.4853516,0.3994141,-0.04638672,-0.4121094,0.1318359
1356,-16.625,48.125,56.125,0.7436523,0.3964844,0.3637695,-0.04638672,-0.4121094,0.1318359
1357,-18.4375,49.125,64.3125,0.7993164,0.4155273,0.4702148,-0.04638672,-0.4121094,0.1318359
1358,-14.8125,56.375,63.1875,0.9189453,0.4272461,0.5375977,-0.04638672,-0.4121094,0.1318359
1359,-8.3125,67.1875,56,0.8554688,0.5390625,0.5732422,-0.04638672,-0.4121094,0.1318359
1360,0.25,73.875,37.75,0.8271484,0.6088867,0.6362305,-0.04638672,-0.4121094,0.1318359
1361,13.5625,81.25,18,0.831543,0.597168,0.5693359,-0.04638672,-0.4121094,0.1318359
1362,13.8125,84.875,15.75,0.7475586,0.546875,0.4902344,-0.04638672,-0.4121094,0.1318359
1363,4.1875,84.9375,29.3125,0.7241211,0.496582,0.5258789,-0.04638672,-0.4121094,0.1318359
1364,-7.125,83.4375,41.75,0.7080078,0.4853516,0.5258789,-0.04638672,-0.4121094,0.1318359
1365,-16.3125,79.75,58.125,0.7519531,0.4619141,0.6958008,-0.04638672,-0.4121094,0.1318359
1366,-23.4375,81,71.1875,0.7714844,0.5083008,0.6879883,-0.04638672,-0.4121094,0.1318359
1367,-17.75,81.0625,67.125,0.7041016,0.6630859,0.7114258,-0.04638672,-0.4121094,0.1318359
1368,-11.3125,79.625,49.9375,0.6601563,0.6630859,0.7314453,-0.04638672,-0.4121094,0.1318359
1369,-3.375,78.5,28.5625,0.6484375,0.7480469,0.699707,-0.04638672,-0.4121094,0.1318359
1370,-1.125,80.125,12.3125,0.6679688,0.5703125,0.6918945,-0.04638672,-0.4121094,0.1318359
1371,-3,83.6875,7,0.6083984,0.512207,0.6835938,-0.04638672,-0.4121094,0.1318359
1372,-1.375,84.3125,11.125,0.5366211,0.5317383,0.5219727,-0.04638672,-0.4121094,0.1318359
1373,-6.75,75.125,19,0.5449219,0.512207,0.5375977,-0.04638672,-0.4121094,0.1318359
1374,-11.6875,67.9375,27.4375,0.5449219,0.4658203,0.5019531,-0.04638672,-0.4121094,0.1318359
1375,-15.8125,61.4375,34.0625,0.5966797,0.4853516,0.5571289,-0.04638672,-0.4121094,0.1318359
1376,-21.8125,57.0625,34.625,0.6323242,0.4926758,0.6166992,-0.04638672,-0.4121094,0.1318359
1377,-24.6875,54.875,22.6875,0.6762695,0.527832,0.7749023,-0.04638672,-0.4121094,0.1318359
1378,-6.1875,61.0625,8.8125,0.7519531,0.5043945,0.6958008,-0.04638672,-0.4121094,0.1318359
1379,0.75,59.875,-2.5625,0.6762695,0.4350586,0.6796875,-0.04638672,-0.4121094,0.1318359
1380,4.625,56.5625,-3.0625,0.7519531,0.3886719,0.7036133,-0.04638672,-0.4121094,0.1318359
1381,0.0625,62.0625,12.0625,0.628418,0.2299805,0.7114258,-0.04638672,-0.4121094,0.1318359
1382,-21.5,56.5,42.4375,0.4848633,0.2495117,0.4428711,-0.04638672,-0.4121094,0.1318359
1383,-53.25,42.75,111.75,-0.3183594,-1.380371,0.00390625,-0.04638672,-0.4121094,0.1318359
1384,-71.75,18.3125,147.25,0.4492188,0.2299805,0.7270508,-0.04638672,-0.4121094,0.1318359
1385,-92.5,5,178.8125,0.6523438,0.1645508,0.5336914,-0.04638672,-0.4121094,0.1318359
1386,-97.1875,-5.25,196.25,0.7875977,0.2685547,0.8100586,-0.04638672,-0.4121094,0.1318359
1387,-91.4375,-10.8125,187.0625,0.7436523,0.5664063,0.6640625,-0.04638672,-0.4121094,0.1318359
1388,-87.9375,-12.1875,141.25,0.7836914,1.269531,1.075195,-0.04638672,-0.4121094,0.1318359
1389,-72.125,-3.5625,83.125,0.644043,0.8833008,0.9169922,-0.04638672,-0.4121094,0.1318359
1390,-92.6875,-5.25,122.4375,0.4013672,-0.8549805,0.6523438,-0.04638672,-0.4121094,0.1318359
1391,-125.6875,-8.875,200.4375,0.3378906,-0.8823242,0.6757813,-0.04638672,-0.4121094,0.1318359
1392,-131.6875,-36.6875,264,0.8154297,0.2456055,0.9248047,-0.04638672,-0.4121094,0.1318359
1393,-114.125,-30.9375,218.3125,1.165527,1.377441,0.9326172,-0.04638672,-0.4121094,0.1318359
1394,-87.625,-25.625,110.375,1.038086,1.566895,1.063477,-0.04638672,-0.4121094,0.1318359
1395,-71.25,-14.25,42.125,0.8232422,0.6010742,1.027832,-0.04638672,-0.4121094,0.1318359
1396,-58.1875,4.5,20.625,0.6523438,0.1606445,0.9682617,-0.04638672,-0.4121094,0.1318359
1397,-36.875,20.4375,6.0625,0.5605469,0.496582,0.8496094,-0.04638672,-0.4121094,0.1318359
1398,-25,24.9375,-13.5,0.6005859,0.6318359,0.8183594,-0.04638672,-0.4121094,0.1318359
1399,-17.9375,23.1875,-24.3125,0.5288086,0.5004883,0.7353516,-0.04638672,-0.4121094,0.1318359
1400,-19.6875,21.5,-19.9375,0.5927734,0.3110352,0.6601563,-0.04638672,-0.4121094,0.1318359
1401,-27.375,17.5625,-12.1875,0.5966797,0.3266602,0.7314453,-0.04638672,-0.4121094,0.1318359
1402,-19.5625,23.875,-10.9375,0.7397461,0.3422852,0.7788086,-0.04638672,-0.4121094,0.1318359
1403,-23.3125,23,5.6875,0.9746094,0.1064453,0.6679688,-0.04638672,-0.4121094,0.1318359
1404,-21.875,17.375,42.0625,0.9428711,-0.08642578,0.5966797,-0.04638672,-0.4121094,0.1318359
1405,-9.0625,29.3125,70.6875,0.8710938,0.06005859,0.8022461,-0.04638672,-0.4121094,0.1318359
1406,13.375,50.875,87.8125,1.098145,0.07958984,1.209473,-0.04638672,-0.4121094,0.1318359
1407,18.1875,74.5,99.5,0.9428711,0.237793,1.138184,-0.04638672,-0.4121094,0.1318359
1408,29.1875,100.4375,101.4375,0.8789063,0.2148438,1.055176,-0.04638672,-0.4121094,0.1318359
1409,38.875,121.25,104.0625,0.7675781,0.06787109,1.011719,-0.04638672,-0.4121094,0.1318359
1410,53.375,128.5,109.8125,0.7558594,0.1992188,0.8891602,-0.04638672,-0.4121094,0.1318359
1411,69.0625,124.4375,118.625,0.7241211,0.02539063,0.9448242,-0.04638672,-0.4121094,0.1318359
1412,79.375,125.625,125.6875,0.6679688,0.07568359,0.9287109,-0.04638672,-0.4121094,0.1318359
1414,83.1875,126.5625,142.5,0.6005859,-0.2485352,0.8974609,-0.04638672,-0.4121094,0.1318359
1415,76.625,129.9375,144.0625,0.4453125,-0.05126953,0.8535156,-0.04638672,-0.4121094,0.1318359
1416,81,129.6875,170,0.4013672,0.06005859,0.7827148,-0.04638672,-0.4121094,0.1318359
1417,72.5625,118.25,191.625,0.4892578,0.03320313,0.6958008,-0.04638672,-0.4121094,0.1318359
1418,39.75,103.8125,184.3125,0.4291992,0.1875,0.7827148,-0.04638672,-0.4121094,0.1318359
1419,-2.0625,98.5625,161.6875,0.4135742,-0.175293,0.8261719,-0.04638672,-0.4121094,0.1318359
1420,22.5,99.625,197.5,0.4692383,0.237793,0.8735352,-0.04638672,-0.4121094,0.1318359
1421,6.8125,100.625,181.25,0.4135742,0.2573242,1.003906,-0.04638672,-0.4121094,0.1318359
1422,20.3125,100.125,168.0625,0.5688477,0.3344727,1.047363,-0.04638672,-0.4121094,0.1318359
1423,46.6875,92.6875,131.375,0.6762695,0.4194336,1.134277,-0.04638672,-0.4121094,0.1318359
1424,58.5,101.5,60.625,0.4331055,0.4233398,1.039551,-0.04638672,-0.4121094,0.1318359
1425,13.375,127,2.375,0.2661133,0.5854492,1.059082,-0.04638672,-0.4121094,0.1318359
1426,29.875,147.1875,-51.0625,0.2143555,0.2109375,0.7353516,-0.04638672,-0.4121094,0.1318359
1427,33.125,143.8125,-60.3125,0.5766602,0.06005859,1.055176,-0.04638672,-0.4121094,0.1318359
1428,71.8125,115.3125,-56.75,0.9150391,0.06005859,1.256836,-0.04638672,-0.4121094,0.1318359
1429,88.6875,85.25,-65.6875,0.8710938,0.1450195,1.059082,-0.04638672,-0.4121094,0.1318359
1430,95.9375,61.0625,-89.5625,0.5009766,-0.08251953,0.7587891,-0.04638672,-0.4121094,0.1318359
1431,57.1875,51.4375,-88.6875,0.5327148,-0.434082,0.8339844,-0.04638672,-0.4121094,0.1318359
1432,34.5,46.625,-82.0625,0.6640625,-0.3295898,0.9091797,-0.04638672,-0.4121094,0.1318359
1433,32.3125,39.9375,-86.4375,0.6723633,-0.1787109,0.9052734,-0.04638672,-0.4121094,0.1318359
1434,39.0625,36.375,-103.125,0.684082,-0.1401367,0.8457031,-0.04638672,-0.4121094,0.1318359
1435,45.875,22,-109.5,0.7397461,-0.2485352,0.7587891,-0.04638672,-0.4121094,0.1318359
1436,55.375,14.1875,-110.9375,0.6245117,-0.159668,0.6958008,-0.04638672,-0.4121094,0.1318359
1437,54,12.5,-117.125,0.3896484,-0.1635742,0.5571289,-0.04638672,-0.4121094,0.1318359
1438,44.3125,11.625,-116.875,0.3657227,-0.008789063,0.5058594,-0.04638672,-0.4121094,0.1318359
1439,8.5,20.9375,-108.5,0.409668,0.1333008,0.4663086,-0.04638672,-0.4121094,0.1318359
1440,-21.8125,37.75,-97.25,0.3618164,0.496582,0.5019531,-0.04638672,-0.4121094,0.1318359
1441,-50,50.875,-87.1875,0.2978516,0.5625,0.5810547,-0.04638672,-0.4121094,0.1318359
1442,-57.75,58.3125,-76.75,0.3061523,0.527832,0.6918945,-0.04638672,-0.4121094,0.1318359
1443,-58.625,61.125,-57.375,0.2382813,0.4501953,0.7075195,-0.04638672,-0.4121094,0.1318359
1444,-62.8125,62.875,-32.6875,0.2026367,0.5317383,0.8100586,-0.04638672,-0.4121094,0.1318359
1445,-61.1875,64.125,-8.5625,0.2661133,0.3730469,0.9643555,-0.04638672,-0.4121094,0.1318359
1446,-46.875,59.8125,16.6875,0.3735352,0.3266602,1.035645,-0.04638672,-0.4121094,0.1318359
1447,-39.75,67.375,41.0625,0.5170898,0.2070313,1.229492,-0.04638672,-0.4121094,0.1318359
1448,-44.8125,89.5,73.6875,0.5844727,0.203125,1.154297,-0.04638672,-0.4121094,0.1318359
1449,-75.3125,125.8125,114.0625,0.5087891,0.2841797,1.086914,-0.04638672,-0.4121094,0.1318359
1450,-87.4375,142,139,0.5449219,0.2724609,1.158203,-0.04638672,-0.4121094,0.1318359
