Packet number,Gyroscope X (deg/s),Gyroscope Y (deg/s),Gyroscope Z (deg/s),Accelerometer X (g),Accelerometer Y (g),Accelerometer Z (g),Magnetometer X (G),Magnetometer Y (G),Magnetometer Z (G)
114,44.875,-21.9375,2.375,0.01953125,-0.4956055,1.003906,0.5219727,0.02246094,-0.5385742
115,42.875,-19.1875,-8.5,0.05908203,-0.4067383,1.102539,0.5004883,-0.01318359,-0.5546875
116,42.5625,-16.375,-6.5625,0.08691406,-0.4106445,1.102539,0.5004883,-0.01318359,-0.5546875
117,42.25,-15,-4.5,0.06738281,-0.4301758,1.075195,0.503418,-0.03369141,-0.5595703
118,43.5625,-13.9375,-0.75,0.1069336,-0.4379883,1.09082,0.503418,-0.03369141,-0.5595703
119,46.375,-11.375,1.125,0.1108398,-0.4570313,1.067383,0.503418,-0.03369141,-0.5595703
120,47.8125,-6.875,2.75,0.07910156,-0.4648438,1.102539,0.503418,-0.03076172,-0.5571289
121,47,-2.0625,4.6875,0.1030273,-0.4492188,1.075195,0.503418,-0.03076172,-0.5571289
122,46.4375,1.8125,5.25,0.05908203,-0.3955078,1.031738,0.4926758,-0.03613281,-0.5625
123,46.6875,4.0625,4.125,0.07910156,-0.3105469,1,0.4926758,-0.03613281,-0.5625
124,45.3125,3.1875,3.5,0.05908203,-0.3759766,1.023926,0.5058594,-0.04345703,-0.5595703
125,41,1.25,4.4375,0.07128906,-0.3720703,1.011719,0.4926758,-0.04882813,-0.5595703
126,38.875,-2.125,6,0.05908203,-0.3916016,1.003906,0.4926758,-0.04882813,-0.5595703
127,39,-3.5625,8,0.05908203,-0.3720703,1.035645,0.503418,-0.05126953,-0.5595703
128,39.1875,-3.375,10.0625,0.06738281,-0.3994141,1.027832,0.503418,-0.05126953,-0.5595703
129,38.875,-3.125,11.125,0.06738281,-0.3720703,1.027832,0.4897461,-0.05126953,-0.5571289
130,36.9375,-1.9375,11.5,0.07128906,-0.402832,1.027832,0.4926758,-0.06396484,-0.5673828
131,33.125,1.3125,12.0625,0.09912109,-0.4106445,1.055176,0.4926758,-0.06396484,-0.5673828
132,28.125,3.4375,14.75,0.05517578,-0.3955078,1.039551,0.4951172,-0.06933594,-0.5649414
133,22.9375,2.3125,20.6875,0.04736328,-0.418457,1.015625,0.4897461,-0.06689453,-0.5625
134,17.5,5.375,35.1875,0.01953125,-0.484375,1.083008,0.4897461,-0.06689453,-0.5625
135,18.5625,5.75,39,0.08691406,-0.3217773,1.067383,0.503418,-0.07714844,-0.5649414
136,21.25,1,28.75,0.06298828,-0.3564453,1.079102,0.503418,-0.07714844,-0.5649414
137,27.4375,-3.6875,20.375,0.04345703,-0.3452148,1.11084,0.4951172,-0.07714844,-0.5571289
138,34.8125,-3.5625,18,0.04736328,-0.3603516,1.114746,0.5004883,-0.08740234,-0.5673828
139,37,-0.6875,17.5625,-0.00390625,-0.3413086,1.122559,0.5004883,-0.08740234,-0.5673828
140,34.75,3.1875,16.875,0.01123047,-0.3413086,1.094727,0.5058594,-0.09472656,-0.5727539
141,32.125,6.8125,17.0625,0.015625,-0.3759766,1.086914,0.5058594,-0.09472656,-0.5727539
142,31.5,9,16.5,0.015625,-0.3105469,1.079102,0.4951172,-0.08984375,-0.5595703
143,34,9.8125,13.5625,-0.01171875,-0.3139648,1.079102,0.4980469,-0.08447266,-0.5649414
144,37.8125,9.5625,10.1875,0.01123047,-0.3066406,1.11084,0.4980469,-0.08447266,-0.5649414
145,41.5,9.0625,6.8125,0.003417969,-0.3105469,1.083008,0.503418,-0.1152344,-0.5625
146,47.6875,8.5,5.0625,-0.05175781,-0.3066406,1.11084,0.5058594,-0.1025391,-0.5595703
147,51.8125,8.6875,5.5625,-0.00390625,-0.3027344,1.09082,0.5058594,-0.1025391,-0.5595703
148,56.1875,7.75,6.75,-0.02783203,-0.2563477,1.126465,0.5195313,-0.1152344,-0.5571289
149,61.4375,4.4375,8.5,-0.05566406,-0.2524414,1.086914,0.5195313,-0.1152344,-0.5571289
150,65.6875,-0.4375,9.6875,-0.02001953,-0.2021484,1.106934,0.5058594,-0.1230469,-0.5649414
151,65.875,-7.0625,7.25,-0.02392578,-0.2021484,1.126465,0.5058594,-0.1333008,-0.5727539
152,64.5625,-11.6875,4.5625,-0.05566406,-0.2250977,1.102539,0.5058594,-0.1333008,-0.5727539
153,57.6875,-10.75,6.375,-0.04003906,-0.2177734,1.102539,0.5058594,-0.1333008,-0.5727539
154,49,-8.3125,6.9375,-0.03564453,-0.2407227,1.134277,0.5058594,-0.1333008,-0.5727539
155,41.375,-8.4375,4.5625,-0.04785156,-0.1943359,1.122559,0.4951172,-0.1411133,-0.5703125
156,34.125,-7.9375,-0.4375,0.003417969,-0.1865234,1.102539,0.5004883,-0.1538086,-0.5859375
157,25.6875,-10.375,-7.3125,-0.03564453,-0.1674805,1.083008,0.5004883,-0.1538086,-0.5859375
158,19.1875,-16.3125,-14.9375,-0.04785156,-0.1865234,1.047363,0.503418,-0.1538086,-0.5703125
159,13.8125,-24.8125,-21.5,-0.01171875,-0.1713867,1.019531,0.503418,-0.1538086,-0.5703125
160,8.0625,-36.625,-27,-0.03564453,-0.175293,1,0.4926758,-0.1586914,-0.5673828
161,5.6875,-49,-32.9375,0.003417969,-0.2099609,1.05127,0.4951172,-0.15625,-0.5673828
162,2.375,-59.0625,-36.5,-0.0078125,-0.1982422,1.063477,0.4951172,-0.15625,-0.5673828
163,0.625,-65.5,-42.875,0.02734375,-0.2329102,1.05127,0.4794922,-0.1586914,-0.5805664
164,-2.9375,-69.375,-46.5625,0.04345703,-0.2792969,1.043457,0.4765625,-0.1459961,-0.578125
165,-2.8125,-72.125,-46.1875,0.07128906,-0.2832031,0.956543,0.4765625,-0.1459961,-0.578125
166,-11.5,-78.625,-46.1875,0.08691406,-0.3105469,0.9487305,0.4794922,-0.1586914,-0.5859375
167,-24.125,-86.25,-43.4375,0.05908203,-0.3564453,0.9169922,0.4794922,-0.1586914,-0.5859375
168,-39,-96.4375,-40.875,0.08691406,-0.3452148,0.8774414,0.4711914,-0.1411133,-0.5834961
169,-50.3125,-110.625,-42.1875,0.1147461,-0.3105469,0.8974609,0.449707,-0.1538086,-0.5966797
170,-52.625,-125.25,-41.4375,0.1625977,-0.2949219,0.9052734,0.449707,-0.1538086,-0.5966797
171,-52.3125,-143.5,-39.8125,0.2104492,-0.3178711,0.8618164,0.4394531,-0.1333008,-0.59375
172,-55.1875,-161.375,-40.6875,0.234375,-0.3178711,0.8535156,0.4394531,-0.1333008,-0.59375
173,-62.8125,-172.5625,-42.0625,0.2783203,-0.3564453,0.9052734,0.4179688,-0.1279297,-0.59375
174,-70.5,-174.8125,-44.8125,0.3300781,-0.3837891,1.063477,0.3964844,-0.1206055,-0.5966797
175,-84.5625,-129.0625,-34.0625,0.2861328,-0.4882813,1.29248,0.3964844,-0.1206055,-0.5966797
176,-66.1875,-91.4375,-20.25,0.3457031,-0.434082,1.276855,0.375,-0.1103516,-0.5991211
177,-34.4375,-74.0625,-13.1875,0.425293,-0.3798828,1.25293,0.3696289,-0.1049805,-0.5834961
179,-3.5,-71.1875,-17.8125,0.4570313,-0.3564453,1.221191,0.3696289,-0.1049805,-0.5834961
180,23.375,-74.0625,-25.0625,0.453125,-0.3105469,1.146484,0.3486328,-0.09472656,-0.59375
181,41.4375,-80.75,-26.8125,0.4174805,-0.3491211,1.150391,0.3486328,-0.09472656,-0.59375
182,53.625,-84.6875,-20.625,0.4013672,-0.3876953,1.20166,0.3349609,-0.09472656,-0.5991211
183,63.8125,-83.0625,-10.5,0.4331055,-0.3876953,1.177734,0.3295898,-0.1025391,-0.6044922
184,73,-75.3125,-1.125,0.4492188,-0.3452148,1.158203,0.3295898,-0.1025391,-0.6044922
185,77.3125,-63.875,2.75,0.4731445,-0.2910156,1.146484,0.3242188,-0.1206055,-0.59375
186,76.1875,-53.5625,5.3125,0.4731445,-0.2910156,1.106934,0.3242188,-0.1206055,-0.59375
187,75.0625,-47,7.0625,0.4731445,-0.2988281,1.086914,0.3139648,-0.1176758,-0.6020508
188,74.5625,-41.9375,8.8125,0.4414063,-0.2485352,1.09082,0.3139648,-0.1176758,-0.6020508
189,72.9375,-39.1875,8.9375,0.4213867,-0.1787109,1.035645,0.3139648,-0.1176758,-0.6020508
190,66.8125,-39.5625,8.8125,0.453125,-0.1362305,1.031738,0.300293,-0.1484375,-0.6020508
191,56.0625,-41.4375,7.75,0.5009766,-0.09375,1.043457,0.300293,-0.1484375,-0.6020508
192,41.5625,-43.5,6.1875,0.4213867,-0.05517578,1.094727,0.300293,-0.1484375,-0.6020508
193,26.0625,-42.875,4.1875,0.4770508,-0.05517578,1.122559,0.2924805,-0.15625,-0.5913086
194,13.9375,-37.0625,2.75,0.4731445,-0.04003906,1.213379,0.2924805,-0.15625,-0.5913086
195,9.375,-25.9375,1.5625,0.4692383,-0.05126953,1.249023,0.2949219,-0.1665039,-0.6044922
196,9.8125,-12.0625,-1.3125,0.480957,-0.03613281,1.217285,0.2841797,-0.1586914,-0.6020508
197,6.5625,0.25,-7.6875,0.4414063,-0.004882813,1.221191,0.2841797,-0.1586914,-0.6020508
198,1.25,10.375,-11.1875,0.4135742,-0.01660156,1.205566,0.2817383,-0.1616211,-0.6044922
199,0.5625,19.875,-11.1875,0.4135742,-0.04736328,1.213379,0.2817383,-0.1616211,-0.6044922
200,0.9375,30.6875,-14.125,0.3818359,-0.004882813,1.20166,0.2895508,-0.1689453,-0.6098633
201,1.3125,41.625,-18.625,0.4052734,-0.008789063,1.173828,0.2949219,-0.1640625,-0.6020508
202,0.5,48.9375,-22.625,0.3378906,-0.01660156,1.154297,0.2949219,-0.1640625,-0.6020508
203,0.4375,53.25,-27.375,0.3217773,-0.02050781,1.086914,0.2949219,-0.15625,-0.5991211
204,3.375,56.5625,-33.625,0.2978516,0.01757813,1.047363,0.2949219,-0.15625,-0.5991211
205,6.8125,59.8125,-43.375,0.2939453,0.02929688,1.027832,0.300293,-0.1713867,-0.6044922
206,5.4375,58.875,-52.25,0.2583008,0.01757813,1,0.3110352,-0.1586914,-0.6044922
207,-1.4375,54.9375,-59.8125,0.2460938,0.02539063,0.9604492,0.3110352,-0.1586914,-0.6044922
208,-9.75,49.6875,-64.0625,0.2543945,-0.02441406,0.9448242,0.3164063,-0.1743164,-0.6069336
209,-13.875,43.625,-65.0625,0.3061523,-0.06689453,0.956543,0.3295898,-0.1640625,-0.6020508
210,-16.625,37.0625,-65.4375,0.3417969,-0.09765625,0.9526367,0.3295898,-0.1640625,-0.6020508
211,-14.4375,32,-66.0625,0.3974609,-0.125,1,0.3217773,-0.1640625,-0.6201172
212,-5.875,30.0625,-64.6875,0.4174805,-0.1943359,1.007813,0.3217773,-0.1640625,-0.6201172
213,4.1875,30.875,-61.125,0.4291992,-0.2099609,1.047363,0.3325195,-0.1616211,-0.6069336
214,11.75,32.125,-55.375,0.425293,-0.2446289,1.011719,0.3271484,-0.1689453,-0.5991211
215,15.5625,33.4375,-47.75,0.409668,-0.2407227,0.9682617,0.3271484,-0.1689453,-0.5991211
216,23.3125,28,-43.0625,0.5688477,0.001953125,0.8891602,0.340332,-0.1665039,-0.5991211
217,95.5625,-44.25,-109.3125,0.7836914,0.4116211,0.5375977,0.340332,-0.1665039,-0.5991211
218,90,-81,-114.375,0.3100586,-0.418457,0.9960938,0.3349609,-0.1586914,-0.6098633
219,79.5,-56.125,-75.6875,0.5209961,-0.3256836,1.14209,0.3295898,-0.1713867,-0.6020508
220,31.25,-56.875,-44.1875,0.6245117,-0.7392578,0.1938477,0.3295898,-0.1713867,-0.6020508
221,-44.3125,-79.875,-38.375,0.7836914,-0.3603516,0.7709961,0.3217773,-0.1816406,-0.6098633
222,4.0625,-64.5,-21.875,0.3935547,-0.1289063,1.039551,0.3217773,-0.1816406,-0.6098633
223,7.625,-32.375,2.3125,0.4052734,-0.1557617,1.486328,0.3217773,-0.1816406,-0.6098633
224,4.5625,23.25,14.25,0.5410156,-0.07470703,1.359863,0.3110352,-0.1767578,-0.5966797
225,-5.5,47,16.6875,0.5288086,0.02148438,1.154297,0.3110352,-0.1767578,-0.5966797
226,3.1875,60.4375,27.375,0.4570313,0.009765625,1.134277,0.3110352,-0.1767578,-0.5966797
227,23.25,95.5625,16,0.3579102,0.07177734,1.14209,0.3295898,-0.1743164,-0.6044922
228,34.875,101,6.5625,0.3857422,0.168457,0.9091797,0.3295898,-0.1743164,-0.6044922
229,32.8125,92.6875,-3.9375,0.3139648,0.1992188,0.9287109,0.3378906,-0.1948242,-0.6044922
230,21.6875,84.125,4.5,0.3256836,0.04443359,1.023926,0.3378906,-0.1948242,-0.6044922
231,1.75,75.5625,17.25,0.3300781,0.04833984,0.9052734,0.3457031,-0.199707,-0.6123047
232,-10.4375,76.125,24.9375,0.3735352,-0.03222656,0.9760742,0.3486328,-0.1791992,-0.6020508
233,-13,90.5,24.875,0.3735352,-0.1132813,1.007813,0.3486328,-0.1791992,-0.6020508
234,-6.8125,110,18,0.3696289,-0.1674805,1.102539,0.3671875,-0.1972656,-0.5991211
235,9.375,122.125,14.875,0.409668,-0.1787109,1.118652,0.3671875,-0.1972656,-0.5991211
236,22.5625,121.5,7.8125,0.3178711,-0.1362305,1.039551,0.3833008,-0.1918945,-0.6020508
237,138.9375,173.5625,-32.4375,0.3417969,-0.1289063,1.40332,0.394043,-0.199707,-0.5991211
238,220.125,236.5625,-85.8125,0.3857422,-0.2910156,1.260742,0.394043,-0.199707,-0.5991211
239,271.3125,208.6875,-127.5625,0.3217773,0.04101563,1.007813,0.4257813,-0.2050781,-0.5834961
240,190.4375,73.875,-101,-0.2587891,-0.125,0.8735352,0.4526367,-0.2431641,-0.5834961
241,161.375,-70.875,-10.6875,-0.02001953,-0.1171875,1.359863,0.4526367,-0.2431641,-0.5834961
242,172.875,-138.0625,23.375,0.3178711,0.02929688,1.40332,0.4443359,-0.253418,-0.5859375
244,183.8125,-153.25,24,0.3256836,0.06005859,1.359863,0.4443359,-0.253418,-0.5859375
245,190.6875,-151.5,18.4375,0.3579102,0.1606445,1.339844,0.4204102,-0.2944336,-0.5703125
246,188.5625,-126.875,3.9375,0.4770508,0.2070313,1.213379,0.4072266,-0.3149414,-0.5966797
247,165.875,-66.3125,-12.875,0.4414063,0.203125,1.106934,0.4072266,-0.3149414,-0.5966797
248,134.1875,-27.3125,-9.8125,0.2939453,0.2802734,0.8852539,0.394043,-0.3227539,-0.5859375
249,92.6875,-12.5625,0,0.4174805,0.3037109,0.7944336,0.394043,-0.3227539,-0.5859375
250,64.0625,5.3125,-0.1875,0.4135742,0.2685547,0.8339844,0.3857422,-0.3354492,-0.5673828
251,40.9375,27.6875,-3.4375,0.3378906,0.222168,0.7983398,0.3911133,-0.3432617,-0.5673828
252,20,39.375,-9.5,0.3457031,0.2260742,0.7944336,0.3911133,-0.3432617,-0.5673828
253,3.4375,44.5,-9.4375,0.3100586,0.1411133,0.8696289,0.3886719,-0.3505859,-0.5649414
254,-1.375,38.5625,-8.4375,0.3217773,0.08349609,0.9287109,0.3964844,-0.3505859,-0.5625
255,0.625,29.6875,-9.75,0.3061523,0.02929688,1.015625,0.3964844,-0.3505859,-0.5625
256,7.5625,27.125,-11.9375,0.3457031,0.08349609,1.086914,0.4018555,-0.3583984,-0.5571289
257,10.4375,35.4375,-11.5,0.222168,0.1411133,0.9804688,0.4018555,-0.3583984,-0.5571289
258,5.5625,51.6875,-20.0625,0.3417969,0.1450195,0.9487305,0.4018555,-0.340332,-0.5625
259,3.125,38.125,-19.8125,0.3100586,0.07177734,1.158203,0.4125977,-0.340332,-0.5571289
260,7.1875,40.125,-12.1875,0.2700195,0.152832,1.031738,0.4125977,-0.340332,-0.5571289
261,0.25,33.125,-8.875,0.3139648,0.203125,1.027832,0.4125977,-0.340332,-0.5571289
262,-4.4375,30.75,-6.0625,0.2900391,0.1835938,1.059082,0.4125977,-0.340332,-0.5571289
263,-7.375,28.0625,-1.0625,0.3579102,0.1411133,1.003906,0.4150391,-0.355957,-0.5727539
264,-4.1875,26.375,27.0625,0.465332,0.005859375,1.193848,0.4150391,-0.355957,-0.5727539
265,-0.625,16.4375,37.375,0.08300781,0.3383789,0.8891602,0.4150391,-0.355957,-0.5727539
266,-6.5,-9.625,31.6875,0.2143555,0.3344727,0.940918,0.4311523,-0.340332,-0.5439453
267,-3.1875,-0.1875,42.3125,0.3774414,0.1796875,1.114746,0.4311523,-0.340332,-0.5439453
268,7.5,12.3125,41.625,0.09521484,0.237793,1.063477,0.4233398,-0.3530273,-0.5595703
269,5.5625,2.5,34.75,0.1508789,0.2612305,0.9882813,0.4179688,-0.3530273,-0.5595703
270,13.9375,5.5625,30.0625,0.2861328,0.1875,1.166016,0.4179688,-0.3530273,-0.5595703
271,26.8125,8.0625,27.5625,0.234375,0.21875,1.130371,0.4072266,-0.355957,-0.5571289
272,35.3125,12.375,23.9375,0.2304688,0.2148438,1.043457,0.4072266,-0.3505859,-0.5595703
273,41.4375,12.1875,22.25,0.262207,0.1875,1.063477,0.4072266,-0.3505859,-0.5595703
274,45.25,12.875,23.1875,0.2143555,0.152832,0.9682617,0.4125977,-0.355957,-0.5517578
275,42.5,13.9375,25.5625,0.2304688,0.1723633,0.9643555,0.4125977,-0.355957,-0.5517578
276,32.125,14.625,28.1875,0.1943359,0.1992188,0.940918,0.4257813,-0.3608398,-0.5517578
277,17,18.5,30.125,0.2265625,0.1723633,1.023926,0.4125977,-0.3710938,-0.5571289
278,0.9375,24.0625,32.6875,0.2143555,0.1875,1.059082,0.4125977,-0.3710938,-0.5571289
279,-12.625,30.9375,35,0.2304688,0.1835938,1.047363,0.4179688,-0.3764648,-0.5571289
280,-20.25,38.625,35.8125,0.2182617,0.1992188,1.071289,0.4179688,-0.3764648,-0.5571289
281,-20.9375,43,39,0.1826172,0.21875,1.14209,0.4179688,-0.3662109,-0.5546875
282,-12.9375,42.25,39.9375,0.1748047,0.2495117,1.098633,0.4179688,-0.3764648,-0.5463867
283,-1.9375,38.6875,39.125,0.2143555,0.2456055,1.071289,0.4179688,-0.3764648,-0.5463867
284,10.75,36.25,38.75,0.1904297,0.2685547,1.071289,0.4179688,-0.3686523,-0.5463867
285,18.125,32.25,40.25,0.1943359,0.2299805,1.011719,0.434082,-0.3710938,-0.5517578
286,-36.625,53.8125,26.375,0.2700195,0.3730469,0.6640625,0.434082,-0.3710938,-0.5517578
287,-54.1875,59.125,37.5,0.03125,0.1796875,0.9604492,0.434082,-0.3735352,-0.5517578
288,-43.6875,39.4375,42.375,0.1469727,0.203125,1.039551,0.434082,-0.3735352,-0.5517578
289,-23.25,32.25,43,0.1586914,0.1762695,1.233398,0.434082,-0.3735352,-0.5439453
290,1.3125,37.9375,40.4375,0.1586914,0.1489258,1.268555,0.4418945,-0.3632813,-0.5546875
291,7.875,41.125,39,0.1508789,0.152832,1.162109,0.4418945,-0.3632813,-0.5546875
292,5.5,42.875,42.3125,0.1469727,0.2338867,1.122559,0.4365234,-0.3632813,-0.5517578
293,-9,46.6875,49.625,0.2143555,0.3149414,0.9682617,0.4365234,-0.3632813,-0.5517578
294,-34.9375,40.3125,53.75,0.08691406,0.1333008,1.027832,0.4443359,-0.3662109,-0.5385742
295,-43.8125,29.0625,55.375,0.04345703,0.04833984,1.126465,0.4443359,-0.3662109,-0.5385742
296,-54.5,19.1875,54.5,0.09912109,0.09082031,1.086914,0.4443359,-0.3662109,-0.5385742
297,-71.125,24.3125,59.5,0.1469727,0.1064453,1.177734,0.4472656,-0.3686523,-0.5463867
298,-91.125,25.875,67.5,0.1269531,0.1064453,1.003906,0.4472656,-0.3686523,-0.5463867
299,-122.125,22.9375,78.125,0.03955078,0.1220703,0.9487305,0.4472656,-0.3686523,-0.5463867
300,-150.3125,22.8125,99.625,0.01953125,0.1025391,0.8974609,0.4472656,-0.3378906,-0.5546875
301,-162.875,3.4375,112.125,0.08300781,-0.02441406,0.9760742,0.4472656,-0.3378906,-0.5546875
302,-100.4375,23.125,117.4375,0.2739258,0.02929688,1.426758,0.434082,-0.3354492,-0.5595703
303,-69,47,106.0625,0.2265625,-0.1865234,1.166016,0.434082,-0.3276367,-0.5595703
304,-59.4375,23.0625,106.0625,0.234375,0.02929688,1.047363,0.434082,-0.3276367,-0.5595703
305,-142.625,54.4375,110.125,0.2265625,-0.06689453,1.442871,0.4418945,-0.3173828,-0.5649414
306,-162.625,82.125,122.625,0.1943359,-0.05126953,1.418945,0.4418945,-0.3173828,-0.5649414
307,-116.1875,66.6875,117.3125,0.1826172,0.1489258,1.272949,0.4394531,-0.2890625,-0.5571289
309,-38.875,38.5,88.1875,0.1704102,0.2299805,1.411133,0.4443359,-0.2890625,-0.5625
310,-0.5625,64.9375,66.4375,0.09521484,0.137207,1.735352,0.4443359,-0.2890625,-0.5625
311,-31.3125,153.1875,58.75,0,0.08349609,1.830078,0.4550781,-0.2919922,-0.5625
312,-61.1875,228.9375,61.25,-0.07958984,0.1914063,1.628418,0.4550781,-0.2919922,-0.5625
313,-63.625,264.375,59.6875,-0.21875,0.253418,1.359863,0.4741211,-0.2919922,-0.5546875
314,-37.1875,269.0625,52,-0.3183594,0.2841797,1.213379,0.4926758,-0.2866211,-0.5673828
315,6.75,247.25,34.9375,-0.4736328,0.2612305,1.067383,0.4926758,-0.2866211,-0.5673828
316,45.375,206.125,12.375,-0.6328125,0.2416992,0.9760742,0.5244141,-0.2817383,-0.5361328
317,52.75,190.4375,-1.875,-0.5932617,0.1875,1.063477,0.5488281,-0.2866211,-0.5175781
318,43.75,187.3125,-11.5625,-0.7524414,0.1411133,0.9643555,0.5488281,-0.2866211,-0.5175781
319,30.5625,189.1875,-12.6875,-0.8320313,0.1259766,0.9365234,0.5649414,-0.296875,-0.512207
320,25.9375,189.4375,-13.1875,-0.8237305,0.1450195,0.8891602,0.5649414,-0.296875,-0.512207
321,33.75,187.5,-17.6875,-0.8515625,0.1142578,0.8100586,0.5888672,-0.2993164,-0.4990234
322,43.8125,181.6875,-21.0625,-0.9155273,0.08349609,0.6679688,0.612793,-0.2944336,-0.4858398
323,51.3125,165.375,-24.125,-0.9033203,0.1259766,0.5532227,0.612793,-0.2944336,-0.4858398
324,50.5,138.125,-30.5625,-0.9116211,0.1489258,0.4072266,0.6259766,-0.3071289,-0.4833984
325,48.0625,102.625,-42.0625,-0.8637695,0.1992188,0.2807617,0.6259766,-0.3071289,-0.4833984
326,46.625,60.75,-66.3125,-0.7202148,0.2109375,0.1899414,0.6396484,-0.3071289,-0.4755859
327,46.75,12.5625,-95.3125,-0.6645508,0.1953125,0.1342773,0.6420898,-0.3046875,-0.4624023
328,42.6875,-39.5,-116.3125,-0.6450195,0.1181641,0.1342773,0.6420898,-0.3046875,-0.4624023
329,33,-90.4375,-128.625,-0.4814453,0.07568359,0.1938477,0.6450195,-0.2993164,-0.4755859
330,15.5625,-132.4375,-138.1875,-0.2944336,0.08349609,0.300293,0.652832,-0.3022461,-0.4755859
331,3.9375,-174.0625,-142.6875,-0.1430664,0.01757813,0.5019531,0.652832,-0.3022461,-0.4755859
332,-3.125,-212.0625,-136.125,-0.08740234,-0.07470703,0.8100586,0.6313477,-0.2919922,-0.4858398
333,-9.9375,-231.75,-126.25,0.09082031,-0.07470703,1.126465,0.6313477,-0.2919922,-0.4858398
334,-20.4375,-225.6875,-120.9375,0.2265625,-0.09375,1.335938,0.6313477,-0.2919922,-0.4858398
335,-24.5625,-197.25,-116.1875,0.3017578,-0.08984375,1.470215,0.5966797,-0.2714844,-0.5175781
336,-20.25,-157.5625,-106.125,0.2661133,-0.109375,1.466309,0.5966797,-0.2714844,-0.5175781
337,-9.0625,-127.9375,-99.3125,0.3696289,-0.04003906,1.375488,0.5966797,-0.2714844,-0.5175781
338,-0.0625,-120.625,-104.625,0.3100586,-0.01660156,1.158203,0.5966797,-0.2714844,-0.5175781
339,6.9375,-144.4375,-101.6875,0.2822266,0.02539063,0.9248047,0.5698242,-0.253418,-0.5307617
340,-3.0625,-186.4375,-93.75,0.4013672,0.09472656,0.8183594,0.5595703,-0.2509766,-0.5439453
341,-31.125,-230.5,-86,0.4414063,0.05224609,0.7587891,0.5595703,-0.2509766,-0.5439453
342,-75.8125,-258.1875,-82.875,0.6679688,0.06396484,0.8735352,0.543457,-0.2485352,-0.5571289
343,-120.125,-276.4375,-79.875,0.6323242,-0.08251953,0.8100586,0.543457,-0.2485352,-0.5571289
344,-158.5,-296.4375,-59.4375,0.6123047,-0.1943359,0.8022461,0.5219727,-0.2431641,-0.5625
345,-183.5625,-311.6875,-39.9375,0.7397461,-0.144043,0.8696289,0.4741211,-0.2050781,-0.5805664
346,-195.5625,-318.4375,-38.5,0.847168,-0.1557617,0.9604492,0.4741211,-0.2050781,-0.5805664
347,-189.4375,-322.1875,-39.875,0.875,-0.2021484,1.126465,0.4311523,-0.1918945,-0.5834961
348,-164.9375,-318.8125,-37,0.8833008,-0.2368164,1.399414,0.3911133,-0.1616211,-0.5991211
349,-135.375,-292.3125,-36.625,0.9428711,-0.2368164,1.584961,0.3911133,-0.1616211,-0.5991211
350,-92.25,-206.3125,-39.4375,1.062012,-0.2641602,2.36377,0.3588867,-0.1435547,-0.5991211
351,-4.75,-9.125,-46.125,1.181641,-0.2021484,3.158203,0.3588867,-0.1435547,-0.5991211
352,18.5,122.0625,-74.625,0.6162109,0.1142578,1.743164,0.3295898,-0.1484375,-0.6020508
353,-9.625,135.625,-87.125,0.7358398,0.09863281,1.086914,0.3486328,-0.1381836,-0.6020508
354,-29.4375,86.75,-106.9375,0.5009766,0.009765625,0.7788086,0.3486328,-0.1381836,-0.6020508
355,-9.0625,54.5625,-125.8125,0.5170898,-0.02050781,0.9169922,0.3725586,-0.1279297,-0.5991211
356,8.875,51.0625,-143.125,0.3417969,-0.175293,1.079102,0.3725586,-0.1279297,-0.5991211
357,16.8125,66.0625,-145.75,0.3256836,-0.1015625,1.047363,0.3696289,-0.1333008,-0.5991211
358,2.625,55.75,-151.9375,0.2182617,-0.09765625,0.9365234,0.3779297,-0.1279297,-0.5966797
359,-14.625,38.4375,-149.375,0.2583008,-0.1479492,1.003906,0.3779297,-0.1279297,-0.5966797
360,-25.375,33.3125,-142.1875,0.2583008,-0.2216797,1.086914,0.3911133,-0.1230469,-0.59375
361,-49.25,18.875,-125.9375,0.3100586,-0.2563477,1.063477,0.3911133,-0.1254883,-0.6044922
362,-73.5,-2,-109.8125,0.3256836,-0.3256836,1.134277,0.3911133,-0.1254883,-0.6044922
363,-75.6875,-8.75,-96.5625,0.3457031,-0.3720703,1.14209,0.3857422,-0.1176758,-0.5991211
364,-72.125,-26.25,-84.6875,0.3061523,-0.3720703,1.011719,0.3857422,-0.1176758,-0.5991211
365,-76.6875,-44.625,-74.25,0.2861328,-0.3066406,0.8457031,0.3803711,-0.1025391,-0.5859375
366,-92.125,-65.6875,-68.5625,0.2822266,-0.3066406,0.7231445,0.375,-0.09472656,-0.5966797
367,-112.0625,-93.5,-59.6875,0.1665039,-0.3530273,0.5610352,0.375,-0.09472656,-0.5966797
368,-128.8125,-121.3125,-43.9375,0.1269531,-0.3681641,0.6245117,0.375,-0.09472656,-0.5966797
369,-123,-125.875,-36.375,0.1347656,-0.2988281,0.8930664,0.375,-0.09472656,-0.5966797
370,-100.375,-114.1875,-44.875,0.1108398,-0.1674805,1.059082,0.3486328,-0.06396484,-0.5859375
371,-77.8125,-96.75,-64.4375,0.03515625,-0.03613281,1.098633,0.3486328,-0.06396484,-0.5859375
372,-58,-73.5,-82.1875,0.007324219,-0.07080078,1.177734,0.3486328,-0.06396484,-0.5859375
374,-28.5625,-49.6875,-95.9375,-0.02392578,-0.08984375,1.185547,0.3139648,-0.04345703,-0.5888672
375,174.3125,205.625,-126.125,1.058105,-0.4106445,5.581055,0.3139648,-0.04345703,-0.5888672
376,147.5625,222.5625,-120.375,0.03515625,-0.04003906,0.8457031,0.3139648,-0.04345703,-0.5859375
377,103.75,211.125,-113.1875,0.2304688,-0.05517578,1.217285,0.3378906,-0.06689453,-0.5805664
378,111.6875,212.625,-132.25,0.1987305,-0.1054688,1.106934,0.3378906,-0.06689453,-0.5805664
379,113.375,221.5,-139.6875,0.206543,-0.1557617,1.130371,0.3588867,-0.07958984,-0.5991211
380,107.625,236.1875,-138.5625,0.3017578,-0.175293,1.035645,0.3803711,-0.08740234,-0.59375
381,83.6875,192.0625,-123.8125,0.2783203,-0.2021484,0.9248047,0.3803711,-0.08740234,-0.59375
382,53.125,101.0625,-92,0.3061523,-0.09765625,0.9052734,0.4150391,-0.1025391,-0.5991211
383,25.875,53.25,-86.4375,0.3339844,0.04101563,0.9130859,0.4150391,-0.1025391,-0.5991211
384,-3.125,38.375,-100.375,0.3217773,0.03710938,0.9208984,0.4072266,-0.1000977,-0.5913086
385,-11.0625,28.75,-102.0625,0.2739258,-0.1328125,0.9921875,0.4257813,-0.1000977,-0.5913086
386,19.3125,11.9375,-65.875,0.2583008,-0.3491211,0.7587891,0.4257813,-0.1000977,-0.5913086
387,29.9375,-12.0625,-49.6875,0.2104492,-0.08251953,0.9804688,0.4311523,-0.1049805,-0.5913086
388,16.25,-23.75,-60.375,0.1147461,0.1333008,1.138184,0.4311523,-0.1049805,-0.5913086
389,12.25,-26.375,-76.9375,-0.06787109,0.01367188,1.185547,0.4287109,-0.1025391,-0.5859375
390,40.5,-24.25,-73.625,0.1147461,-0.125,1.138184,0.4179688,-0.1103516,-0.59375
391,33.0625,-29.3125,-83.75,0.2700195,0.005859375,1.063477,0.4179688,-0.1103516,-0.59375
392,17.3125,-29.0625,-99.1875,0.5288086,0.01367188,1.260742,0.409668,-0.1049805,-0.5888672
393,28.4375,-17.9375,-86,0.4570313,0.1298828,0.8974609,0.4042969,-0.1074219,-0.5859375
394,3.125,2.6875,-96.8125,0.7119141,0.2109375,1.624512,0.4042969,-0.1074219,-0.5859375
395,-7.0625,33.5,-83.375,0.6323242,-0.2021484,1.205566,0.3994141,-0.112793,-0.5888672
396,-113.375,64.5625,-83.0625,0.5366211,0.3999023,0.7788086,0.3994141,-0.112793,-0.5888672
397,-164.1875,95.6875,-98,0.5131836,0.2763672,1.043457,0.4179688,-0.09228516,-0.59375
398,-145.6875,94.1875,-105,0.1665039,-0.06689453,1.122559,0.4257813,-0.07714844,-0.5859375
399,-92.375,73.5625,-74.6875,0.06738281,-0.4492188,1.233398,0.4257813,-0.07714844,-0.5859375
400,-34.9375,43.75,-36.9375,0.09082031,-0.3759766,0.9921875,0.4257813,-0.06933594,-0.5756836
401,-19.5625,10.25,-15.125,0.1704102,-0.2290039,1.05127,0.4257813,-0.06933594,-0.5756836
402,-30.5,-20.4375,-7.9375,0.1943359,-0.1132813,1.071289,0.4311523,-0.05664063,-0.5756836
403,-44.6875,-47.625,-10.25,0.1469727,-0.05908203,1.094727,0.4394531,-0.05371094,-0.578125
404,-39.375,-69.375,-6.25,0.1469727,-0.144043,1.138184,0.4394531,-0.05371094,-0.578125
405,-9.3125,-84.1875,5.375,0.1987305,-0.2524414,1.209473,0.4287109,-0.04638672,-0.5756836
406,21.4375,-90,14.75,0.2661133,-0.1635742,1.162109,0.4287109,-0.04638672,-0.5756836
407,27.3125,-76.8125,20.0625,0.2739258,-0.109375,1.150391,0.4287109,-0.04638672,-0.5756836
408,30.875,-61.1875,31.75,0.3417969,-0.1015625,1.20166,0.3964844,-0.06396484,-0.5805664
409,51.1875,-58.8125,39.5625,0.3178711,-0.1787109,1.197754,0.3964844,-0.06396484,-0.5805664
410,72.125,-64.9375,56.5625,0.1704102,-0.2524414,1.197754,0.3964844,-0.06396484,-0.5805664
411,74.375,-77.6875,73.5,0.3139648,-0.1865234,1.14209,0.3911133,-0.05664063,-0.5859375
412,55.875,-99.4375,74.9375,0.4013672,0.005859375,1.059082,0.3911133,-0.05664063,-0.5859375
413,46.375,-123.25,77.125,0.4135742,-0.07861328,1.063477,0.3779297,-0.07421875,-0.5966797
414,29.5625,-130.5,68.5,0.425293,-0.09765625,1.027832,0.3779297,-0.07421875,-0.5966797
415,21.5,-137.8125,78.5625,0.4731445,-0.1865234,1.083008,0.3642578,-0.07714844,-0.59375
416,33.75,-142.25,92.75,0.5566406,-0.1865234,1.154297,0.3510742,-0.08447266,-0.59375
417,40.1875,-153,104.8125,0.4770508,-0.09375,1.130371,0.3510742,-0.08447266,-0.59375
418,44.625,-162.6875,115.125,0.4692383,-0.05517578,1.185547,0.3349609,-0.08447266,-0.5966797
419,75,-149.0625,102.5,0.4135742,-0.1401367,1.355957,0.3349609,-0.08447266,-0.5966797
420,156,-141.875,80.875,0.5688477,0.07177734,1.308105,0.3164063,-0.09228516,-0.5966797
421,166.75,-127.1875,86.125,0.3300781,-0.008789063,1.320313,0.2978516,-0.1206055,-0.5859375
422,107.4375,-112.625,92.25,0.3935547,0.1567383,1.241211,0.2978516,-0.1206055,-0.5859375
423,42.0625,-99.5625,90.75,0.4892578,0.1025391,1.154297,0.2871094,-0.1152344,-0.5913086
424,5.25,-88.6875,76.5,0.6206055,0.02539063,1.039551,0.2763672,-0.1308594,-0.5966797
425,3.9375,-83,69.875,0.6401367,-0.06298828,1.067383,0.2763672,-0.1308594,-0.5966797
426,18.75,-83.8125,69.8125,0.6918945,-0.03613281,0.9169922,0.2631836,-0.1308594,-0.6020508
427,7,-83.3125,68,0.65625,0.02929688,1.015625,0.2631836,-0.1308594,-0.6020508
428,4.0625,-79.8125,66.9375,0.5688477,0.01367188,1.023926,0.2495117,-0.1381836,-0.5913086
429,0.6875,-75,64.3125,0.5727539,-0.04736328,0.9804688,0.2470703,-0.1333008,-0.5913086
430,0.1875,-67.4375,62.8125,0.6245117,-0.05126953,0.9365234,0.2470703,-0.1333008,-0.5913086
431,3.875,-63.25,55.75,0.65625,0.02929688,0.9169922,0.2387695,-0.1357422,-0.59375
432,0.0625,-55.125,50.5,0.6162109,0.1220703,0.8813477,0.2387695,-0.1357422,-0.59375
433,-4.5,-60.5,41.375,0.6123047,0.1025391,0.9052734,0.2285156,-0.1308594,-0.59375
434,-14.3125,-69.5625,34.75,0.5927734,0.02929688,0.8579102,0.230957,-0.1279297,-0.5966797
435,-22.3125,-76.125,30.125,0.5644531,0.04443359,0.9208984,0.230957,-0.1279297,-0.5966797
436,-27.6875,-78.1875,24.0625,0.5249023,0.08349609,0.9682617,0.2070313,-0.1176758,-0.59375
437,-34.5,-77.0625,17.6875,0.5087891,0.02929688,0.984375,0.2070313,-0.1206055,-0.59375
439,-39.5625,-71.3125,12.5,0.5727539,-0.004882813,0.9208984,0.2070313,-0.1206055,-0.59375
440,-33.3125,-62.4375,16.0625,0.628418,-0.07470703,0.8378906,0.1933594,-0.1176758,-0.5966797
441,-12.75,-54.8125,28.375,0.6523438,-0.1479492,0.8061523,0.1933594,-0.1176758,-0.5966797
442,3.375,-52.3125,39.5625,0.6679688,-0.06298828,0.7509766,0.1884766,-0.1025391,-0.5834961
443,7.5625,-57.6875,45.5,0.6601563,-0.02050781,0.7509766,0.1831055,-0.1176758,-0.578125
444,6.3125,-67.6875,52.8125,0.6083984,-0.08642578,0.7866211,0.1831055,-0.1176758,-0.578125
445,4,-75,62.5,0.6083984,-0.07470703,0.8496094,0.1831055,-0.1176758,-0.578125
446,0.0625,-75.6875,67.75,0.5366211,-0.04736328,0.8496094,0.1831055,-0.1176758,-0.578125
447,-2,-76.9375,71.25,0.5844727,-0.08251953,0.8022461,0.1694336,-0.112793,-0.578125
448,9.25,-58.5,83.4375,0.6162109,-0.2910156,0.9882813,0.1586914,-0.1103516,-0.5703125
449,25.8125,-33.1875,102.8125,0.6679688,-0.2792969,0.9013672,0.1586914,-0.1103516,-0.5703125
450,46.6875,-3.625,115.9375,0.628418,-0.1826172,0.9326172,0.1533203,-0.1103516,-0.5673828
451,58.5625,22.6875,115.6875,0.6323242,-0.1054688,0.8852539,0.1533203,-0.1103516,-0.5673828
452,62.875,36.9375,110.625,0.5449219,-0.1289063,0.8100586,0.1508789,-0.1049805,-0.5727539
453,60,38.1875,108.75,0.5605469,-0.159668,0.7587891,0.1723633,-0.112793,-0.5756836
454,55.5625,28.4375,107.1875,0.5366211,-0.125,0.7509766,0.1723633,-0.112793,-0.5756836
455,42.8125,14.125,103.8125,0.5527344,-0.05517578,0.7270508,0.1640625,-0.1254883,-0.578125
456,19.8125,-4.3125,94.125,0.4692383,0.001953125,0.7905273,0.1723633,-0.1074219,-0.5805664
457,-3.1875,-24.25,75.8125,0.4331055,0.06787109,0.7944336,0.1723633,-0.1074219,-0.5805664
458,-24.625,-48.75,53.125,0.4291992,-0.004882813,0.7626953,0.1586914,-0.1025391,-0.5834961
459,-37.1875,-71.25,38.0625,0.4770508,-0.07861328,0.7709961,0.1586914,-0.1025391,-0.5834961
460,-42,-92,28.375,0.5048828,-0.09375,0.8144531,0.1586914,-0.1152344,-0.5805664
461,-44.125,-110.4375,22.125,0.5527344,-0.1132813,0.8100586,0.1616211,-0.09228516,-0.5703125
462,-55.5625,-128.9375,9.875,0.5605469,-0.06689453,0.8261719,0.1616211,-0.09228516,-0.5703125
463,-63.1875,-139.375,-0.5,0.5688477,-0.144043,0.9091797,0.1376953,-0.09765625,-0.5727539
464,-64.8125,-141.5625,-4.125,0.6206055,-0.2177734,0.8339844,0.1376953,-0.09765625,-0.5727539
465,-65.125,-136.75,-6.625,0.7041016,-0.2563477,0.8417969,0.1186523,-0.08740234,-0.5595703
466,-60.6875,-119.875,-4.25,0.8037109,-0.2368164,0.7749023,0.1030273,-0.08203125,-0.5463867
467,-52.4375,-101.5,-5.625,0.8354492,-0.2138672,0.8061523,0.1030273,-0.08203125,-0.5463867
468,-44.8125,-85.4375,-10.625,0.8193359,-0.1943359,0.7587891,0.09228516,-0.07421875,-0.5493164
469,-40.5,-69.0625,-12.9375,0.8232422,-0.2563477,0.7509766,0.09228516,-0.07958984,-0.5463867
470,-35.75,-56.4375,-13.75,0.8554688,-0.2792969,0.7036133,0.09228516,-0.07958984,-0.5463867
471,-24.875,-44.1875,-16.125,0.902832,-0.2714844,0.7075195,0.07617188,-0.07177734,-0.5332031
472,-12,-33.5,-19.8125,0.8911133,-0.2216797,0.699707,0.07617188,-0.07177734,-0.5332031
473,-6,-24.3125,-24.3125,0.8833008,-0.2446289,0.7192383,0.06835938,-0.07177734,-0.5283203
474,-0.3125,-17.375,-29.375,0.8632813,-0.2407227,0.715332,0.07080078,-0.07958984,-0.5307617
475,4.9375,-11.5,-33.5625,0.8115234,-0.2290039,0.7431641,0.07080078,-0.07958984,-0.5307617
476,9,-5.375,-39.4375,0.8232422,-0.2060547,0.7314453,0.06542969,-0.07177734,-0.5307617
477,10.9375,-1.125,-45.6875,0.7915039,-0.2021484,0.7587891,0.06542969,-0.07177734,-0.5307617
478,8.1875,2.9375,-53.1875,0.7714844,-0.175293,0.7666016,0.06298828,-0.07714844,-0.5361328
479,-0.8125,-0.8125,-64.1875,0.7158203,-0.08984375,0.5336914,0.06298828,-0.07714844,-0.5361328
480,-33.5625,-39.8125,-77.25,0.7519531,-0.1826172,0.5175781,0.06298828,-0.07714844,-0.5361328
481,-85.375,-55.9375,-79.8125,0.7280273,-0.2177734,0.5415039,0.06005859,-0.08203125,-0.5332031
482,-112.375,-74.5,-70.375,0.7280273,-0.4262695,0.8930664,0.06005859,-0.08203125,-0.5332031
483,-104.5,-65.5,-47.4375,0.684082,-0.46875,0.9448242,0.06005859,-0.08203125,-0.5332031
484,-32.5,-37.3125,0.25,0.6640625,-0.7275391,1.059082,0.03320313,-0.07714844,-0.5151367
485,3.9375,-5.8125,27.3125,0.8037109,-0.1015625,0.7548828,0.03320313,-0.07714844,-0.5151367
486,-11.375,10.25,19.625,0.7675781,0.09472656,0.6640625,0.04150391,-0.06396484,-0.512207
487,-15.6875,14.125,8.5,0.7836914,-0.1362305,0.65625,0.05224609,-0.05371094,-0.5151367
488,-27.1875,6.0625,15.625,0.7080078,-0.402832,0.699707,0.05224609,-0.05371094,-0.5151367
489,-12.375,-4.5625,27.3125,0.7558594,-0.2563477,0.6166992,0.03857422,-0.04882813,-0.5175781
490,-15.8125,-7.1875,29,0.7797852,-0.1713867,0.6323242,0.03857422,-0.04882813,-0.5175781
491,-7.875,-3.625,29,0.7954102,-0.1635742,0.6166992,0.046875,-0.05664063,-0.5253906
492,-1.6875,2.875,30.0625,0.831543,-0.1904297,0.644043,0.04931641,-0.05126953,-0.5175781
493,5.8125,8.375,33.1875,0.8076172,-0.2485352,0.6640625,0.04931641,-0.05126953,-0.5175781
494,14.3125,15,34,0.8632813,-0.1713867,0.6245117,0.03857422,-0.05664063,-0.5151367
495,12,21.0625,30.4375,0.8710938,-0.144043,0.6005859,0.03857422,-0.05664063,-0.5151367
496,17,23.1875,27.5625,0.859375,-0.1865234,0.6484375,0.046875,-0.05126953,-0.512207
497,23.5,20.375,28.8125,0.8554688,-0.1982422,0.6206055,0.04150391,-0.04638672,-0.5151367
498,27.5625,16.8125,26.9375,0.8710938,-0.1713867,0.6323242,0.04150391,-0.04638672,-0.5151367
499,28.375,15.5,24.25,0.8554688,-0.1943359,0.699707,0.05224609,-0.05126953,-0.5200195
500,31.9375,19.3125,21.3125,0.8432617,-0.1787109,0.7036133,0.05224609,-0.04882813,-0.5200195
501,30.8125,22.875,15.4375,0.847168,-0.1054688,0.7114258,0.05224609,-0.04882813,-0.5200195
502,28.8125,25.3125,8.625,0.7993164,-0.144043,0.7431641,0.06005859,-0.05371094,-0.5253906
504,24.25,29.1875,3.875,0.7675781,-0.2021484,0.7666016,0.06005859,-0.05371094,-0.5253906
505,7.5625,44,6.125,0.8911133,-0.1362305,0.8891602,0.06298828,-0.06396484,-0.5253906
506,16.5,33.25,-7.4375,0.8271484,-0.1479492,0.7075195,0.07617188,-0.07177734,-0.5361328
507,21.0625,17.625,-13.3125,0.8671875,-0.2021484,0.5927734,0.07617188,-0.07177734,-0.5361328
508,15.875,2.9375,-14.75,0.8193359,-0.2216797,0.6679688,0.06005859,-0.06152344,-0.5332031
509,22.25,-2.25,-13.5,0.8271484,-0.1943359,0.699707,0.06005859,-0.06152344,-0.5332031
510,25.75,-4,-12.625,0.7954102,-0.175293,0.7470703,0.06298828,-0.06396484,-0.5439453
511,27.0625,-4.8125,-11.5625,0.7836914,-0.1865234,0.6958008,0.06298828,-0.06689453,-0.5332031
512,22.875,-5.75,-12.1875,0.7597656,-0.1826172,0.6835938,0.06298828,-0.06689453,-0.5332031
513,15.8125,-9.125,-15,0.7797852,-0.1557617,0.715332,0.06005859,-0.06689453,-0.5332031
514,12.5,-12.75,-15.0625,0.7475586,-0.2329102,0.7866211,0.06298828,-0.08447266,-0.5361328
515,13.0625,-27.375,-13.8125,0.9428711,-0.2216797,0.8378906,0.06298828,-0.08447266,-0.5361328
516,-10.4375,-20.9375,-13.6875,0.8154297,-0.04394531,0.7353516,0.06298828,-0.06933594,-0.5229492
517,-20.625,-18.375,-18,0.8154297,-0.159668,0.699707,0.06298828,-0.06933594,-0.5229492
518,-18.875,-13.125,-16.4375,0.7714844,-0.2290039,0.7192383,0.06298828,-0.06933594,-0.5229492
519,-20.6875,-5.4375,-12,0.8154297,-0.1865234,0.644043,0.05761719,-0.06933594,-0.5283203
520,-19.4375,-0.3125,-8.9375,0.7714844,-0.1557617,0.6918945,0.05761719,-0.06933594,-0.5283203
521,-16,-3.0625,-8.5625,0.7753906,-0.1557617,0.715332,0.05761719,-0.06933594,-0.5283203
522,-26.125,-5.4375,-7,0.7397461,-0.1401367,0.7231445,0.05761719,-0.06933594,-0.5283203
523,-47,-2.125,-7.5,0.7558594,-0.109375,0.7827148,0.0546875,-0.07421875,-0.5283203
524,-61.3125,0.5,-11.25,0.7993164,-0.1635742,0.7036133,0.0546875,-0.07714844,-0.5229492
525,-68.5,-2.75,-12.0625,0.847168,-0.1557617,0.644043,0.0546875,-0.07714844,-0.5229492
526,-75.6875,-5.25,-12.9375,0.8950195,-0.1865234,0.65625,0.06005859,-0.06933594,-0.512207
527,-69.3125,-5.4375,-10.0625,0.8789063,-0.1865234,0.7075195,0.06005859,-0.06933594,-0.512207
528,-65.875,0.6875,-10.4375,0.8789063,-0.159668,0.7036133,0.05761719,-0.04882813,-0.5229492
529,-61.375,9.375,-15.625,0.8271484,-0.1210938,0.6918945,0.0546875,-0.04882813,-0.5175781
530,-47.375,14.3125,-13.375,0.7954102,-0.2675781,0.7548828,0.0546875,-0.04882813,-0.5175781
531,-32.375,19.3125,-6.5625,0.7636719,-0.2871094,0.8183594,0.0546875,-0.04638672,-0.5200195
532,-20.6875,19.8125,-7.25,0.8037109,-0.1787109,0.6757813,0.0546875,-0.04101563,-0.5151367
533,-22.5625,16.25,-11.8125,0.7915039,-0.1904297,0.7548828,0.0546875,-0.04101563,-0.5151367
534,-31.1875,14.375,-16.25,0.7836914,-0.175293,0.7626953,0.0546875,-0.04638672,-0.5151367
535,-41.5625,16.75,-21.9375,0.8076172,-0.2290039,0.7788086,0.0546875,-0.04638672,-0.5151367
536,-42.5,23.25,-26,0.831543,-0.2329102,0.7905273,0.06542969,-0.03076172,-0.5097656
537,-26.6875,40.25,-28.125,0.8232422,-0.2021484,0.7905273,0.06298828,-0.04345703,-0.5151367
538,-13.1875,45.875,-24.125,0.8037109,-0.3295898,0.6958008,0.06298828,-0.04345703,-0.5151367
539,-7.5625,45,-17.5625,0.7753906,-0.2949219,0.7431641,0.06005859,-0.03857422,-0.5175781
540,-3.6875,46.1875,-16.1875,0.7993164,-0.2177734,0.7905273,0.06005859,-0.03857422,-0.5175781
541,4.0625,57.875,-17,0.7319336,-0.2290039,0.9013672,0.06298828,-0.04101563,-0.5151367
542,15.8125,78.875,-17.25,0.6918945,-0.2407227,1.059082,0.07324219,-0.03857422,-0.5229492
543,36.6875,119.4375,-18.4375,0.6044922,-0.2021484,1.320313,0.07324219,-0.03857422,-0.5229492
544,62.125,173.8125,-19.3125,0.3857422,-0.2290039,1.134277,0.09472656,-0.04882813,-0.5332031
545,49.625,195,-32.75,0.4453125,-0.1132813,0.7075195,0.1054688,-0.04345703,-0.5415039
546,6.0625,155.3125,-49.4375,0.6323242,-0.2407227,0.3911133,0.1054688,-0.04345703,-0.5415039
547,-11.4375,93.9375,-42.375,0.847168,-0.2949219,0.5693359,0.1162109,-0.05126953,-0.5517578
548,6.5625,61,-18.6875,0.902832,-0.2988281,0.8657227,0.1162109,-0.05126953,-0.5517578
549,19.625,53.25,0.9375,0.8037109,-0.2329102,0.8974609,0.1162109,-0.04345703,-0.5571289
550,28.625,61.75,7.0625,0.644043,-0.1171875,1.05127,0.1323242,-0.05126953,-0.5595703
551,27.5,74.9375,-0.5625,0.5087891,-0.1210938,1.023926,0.1323242,-0.05126953,-0.5595703
552,13.6875,79.25,-13.375,0.5488281,-0.1674805,0.9526367,0.1508789,-0.05371094,-0.5571289
553,11.125,84.1875,-18.6875,0.5366211,-0.2138672,0.8496094,0.1508789,-0.05371094,-0.5571289
554,7.5625,89.875,-23.3125,0.5449219,-0.159668,0.8852539,0.1533203,-0.04882813,-0.5595703
555,3.625,101.625,-34.125,0.6044922,-0.144043,0.984375,0.1533203,-0.04882813,-0.5595703
556,7.25,120.1875,-39.875,0.628418,-0.1865234,0.9326172,0.1533203,-0.04882813,-0.5595703
557,11.25,132.6875,-42.125,0.6762695,-0.2485352,0.8813477,0.1640625,-0.05664063,-0.5595703
558,15.0625,130.0625,-34.5,0.6679688,-0.2949219,0.7431641,0.1640625,-0.05664063,-0.5595703
559,14.75,110.8125,-28.4375,0.6723633,-0.2753906,0.6958008,0.1855469,-0.06152344,-0.5649414
560,14.1875,89.375,-22.625,0.6206055,-0.2563477,0.699707,0.2041016,-0.06933594,-0.5756836
561,17.0625,65.1875,-20.625,0.6123047,-0.2329102,0.7353516,0.2041016,-0.06933594,-0.5756836
562,20,53.25,-22.4375,0.5410156,-0.2368164,0.8378906,0.2177734,-0.07714844,-0.578125
563,22.5,50.625,-28.0625,0.5087891,-0.2216797,0.8852539,0.2070313,-0.07177734,-0.5805664
564,24.3125,56.0625,-35.6875,0.465332,-0.2138672,0.8417969,0.2070313,-0.07177734,-0.5805664
565,22.5625,57.9375,-44.0625,0.425293,-0.2290039,0.8061523,0.2255859,-0.07714844,-0.5756836
566,24.1875,58.625,-50.1875,0.4453125,-0.2177734,0.8457031,0.2255859,-0.07714844,-0.5756836
567,23.0625,60.4375,-57.875,0.4213867,-0.2216797,0.8496094,0.2255859,-0.08984375,-0.5888672
569,20.75,59.625,-65.5625,0.480957,-0.1826172,0.8852539,0.230957,-0.08740234,-0.578125
570,19.25,68.0625,-72.0625,0.480957,-0.1210938,0.9643555,0.230957,-0.08740234,-0.578125
571,15.5625,77.9375,-73.3125,0.5209961,-0.1518555,0.9287109,0.2416992,-0.08740234,-0.5834961
572,17.75,80.5,-66.4375,0.5605469,-0.1518555,0.8696289,0.2416992,-0.08740234,-0.5834961
573,28.5625,55.8125,-58.0625,0.465332,-0.144043,0.65625,0.2495117,-0.08984375,-0.5913086
574,29.6875,22.9375,-56.25,0.6679688,-0.1171875,0.8696289,0.2416992,-0.08984375,-0.5913086
575,11.6875,-5.9375,-46.6875,0.7519531,-0.2290039,1.355957,0.2416992,-0.08984375,-0.5913086
576,17.9375,71.5625,-22.3125,1.229492,-0.05908203,1.612793,0.2495117,-0.1103516,-0.5888672
577,-10.125,83.125,11.6875,0.6323242,-0.1289063,0.8735352,0.265625,-0.1025391,-0.5888672
578,-45.9375,10.4375,29.9375,0.5527344,-0.1674805,0.4702148,0.265625,-0.1025391,-0.5888672
579,-19.25,-23.5,47.875,0.5527344,0.04833984,0.7353516,0.2548828,-0.09228516,-0.5834961
580,-7.4375,-52.3125,45.5,0.409668,-0.05126953,0.984375,0.2548828,-0.09228516,-0.5834961
581,-10.4375,-79.8125,58.375,0.4213867,-0.1904297,1.047363,0.2578125,-0.09228516,-0.5913086
582,-8.625,-85.5625,68.9375,0.4375,-0.1132813,1.106934,0.2441406,-0.09472656,-0.5888672
583,1.3125,-73.875,80.8125,0.09521484,-0.2485352,1.339844,0.2441406,-0.09472656,-0.5888672
584,32.5625,-35.375,85.8125,0.234375,-0.07470703,1.268555,0.2495117,-0.1000977,-0.578125
585,92.75,-62.0625,27.5625,0.7280273,0.05615234,1.027832,0.2495117,-0.1000977,-0.578125
586,-0.0625,-57,44.5625,0.4770508,0.05615234,1.086914,0.2338867,-0.1000977,-0.5913086
587,63.1875,-44.75,3.875,0.6162109,0.2958984,0.9643555,0.2387695,-0.09765625,-0.5888672
588,59.6875,-6.125,-16,0.4614258,-0.2290039,1.075195,0.2387695,-0.09765625,-0.5888672
589,39,16.875,-8.875,0.5249023,-0.1865234,1.003906,0.2285156,-0.1152344,-0.5888672
590,43.0625,31.3125,-10.3125,0.6123047,-0.2910156,0.9643555,0.2285156,-0.1152344,-0.5888672
591,0.5625,39.0625,-8.5625,0.6044922,-0.04003906,0.7626953,0.2285156,-0.1152344,-0.5888672
592,1.625,61,-6.3125,0.5927734,0.02148438,1.059082,0.2441406,-0.1176758,-0.5888672
593,39.375,92.5,-22.875,0.5688477,-0.1171875,1.284668,0.2441406,-0.1176758,-0.5888672
594,89.0625,138.0625,-41.4375,0.4375,-0.2060547,1.122559,0.2441406,-0.1176758,-0.5888672
595,125,149.875,-36.4375,0.4453125,-0.2138672,1.05127,0.2524414,-0.1308594,-0.5966797
596,44.9375,231.5,-23.125,0.5883789,-0.175293,1.059082,0.2524414,-0.1308594,-0.5966797
597,52.8125,273,-13.9375,1.854004,0.5351563,0.8061523,0.2871094,-0.1459961,-0.5991211
598,54.25,395.125,-16.375,0.9150391,-0.1015625,1.031738,0.2871094,-0.1459961,-0.5991211
599,125.6875,506.75,-41.3125,0.8432617,0.1762695,1.019531,0.3188477,-0.1513672,-0.5966797
600,154.3125,580.1875,-80.5,0.1191406,-0.3955078,1.130371,0.3911133,-0.1616211,-0.5991211
601,61.0625,623.25,29.125,0.2543945,-0.3642578,0.6401367,0.3911133,-0.1616211,-0.5991211
602,-136.6875,652.3125,75.25,0.3100586,0.546875,1.36377,0.4658203,-0.1665039,-0.5756836
603,-489.875,532.625,25,-0.5493164,0.3461914,2.399414,0.4658203,-0.1665039,-0.5756836
604,98.8125,-91.25,-294.5,-2.276855,-0.109375,0.4824219,0.5351563,-0.15625,-0.5571289
605,38.5,-73.9375,-43.4375,-0.1630859,-0.2250977,0.7709961,0.5351563,-0.1206055,-0.5439453
606,-12.5625,31.3125,-42.0625,0.06298828,0.1333008,1.14209,0.5351563,-0.1206055,-0.5439453
607,-4.4375,3.8125,-68.9375,-0.4057617,-0.1904297,1.031738,0.5351563,-0.1308594,-0.5546875
608,-2.4375,-0.75,-59.0625,-0.1669922,0.1142578,1.122559,0.5351563,-0.1206055,-0.5439453
609,-6,14.6875,-83.0625,-0.1552734,-0.1826172,1.166016,0.5351563,-0.1206055,-0.5439453
610,-2.0625,35.625,-67.25,-0.2548828,-0.1289063,1.047363,0.5380859,-0.1103516,-0.5517578
611,-13.5625,38.0625,-51.625,-0.190918,-0.1328125,1.166016,0.5380859,-0.1103516,-0.5517578
612,3.625,29.8125,-37.3125,-0.01171875,-0.09375,1.114746,0.5351563,-0.1230469,-0.5415039
613,8.75,21.0625,-27.625,0.07128906,-0.1054688,1.122559,0.5512695,-0.1176758,-0.5493164
614,3.9375,15.875,-15.5625,0.09521484,-0.109375,1.043457,0.5512695,-0.1176758,-0.5493164
615,3.0625,8.25,-8.0625,0.1069336,-0.03613281,1.071289,0.5512695,-0.1152344,-0.5546875
616,8.9375,-0.1875,-5.75,0.015625,-0.04394531,1.098633,0.5512695,-0.1152344,-0.5546875
617,14.3125,-7.3125,-7.4375,-0.01171875,-0.04394531,1.122559,0.5488281,-0.1176758,-0.5385742
618,19.375,-16.4375,-9.8125,-0.08740234,-0.06298828,1.138184,0.5541992,-0.1176758,-0.5517578
619,18.1875,-21.1875,-7.75,-0.01611328,-0.04394531,1.067383,0.5541992,-0.1176758,-0.5517578
620,16.25,-22.25,-7.6875,0.1704102,0.08740234,1.031738,0.5566406,-0.1254883,-0.5517578
621,8,-24.9375,-21,0.222168,0.04101563,1.015625,0.543457,-0.1230469,-0.5517578
622,5.0625,-30.8125,-23.5625,0.03515625,-0.07470703,1.05127,0.543457,-0.1230469,-0.5517578
623,8.375,-41.375,-23.5,-0.02783203,-0.02441406,0.984375,0.5351563,-0.1206055,-0.5571289
624,12.5,-48.6875,-28.3125,-0.07568359,-0.008789063,1.075195,0.5351563,-0.1206055,-0.5571289
625,14.75,-53.25,-30.25,0.0234375,-0.01660156,1.031738,0.5351563,-0.1176758,-0.5625
626,12.875,-53.4375,-31.4375,0.1108398,0.03320313,1.067383,0.5244141,-0.1206055,-0.5517578
627,6.625,-49.1875,-33.625,0.1030273,0.001953125,1.094727,0.5244141,-0.1206055,-0.5517578
628,1.375,-47.4375,-34.8125,0.05908203,0.005859375,1.071289,0.5244141,-0.1206055,-0.5517578
629,-3.5,-47.25,-32.1875,0.03125,-0.0009765625,1.071289,0.5244141,-0.1206055,-0.5517578
630,-11.25,-48.75,-29.8125,0.1469727,0.02929688,1.071289,0.5166016,-0.1230469,-0.5595703
631,-15.6875,-50.875,-27.875,0.2143555,0.09472656,1.086914,0.5166016,-0.1230469,-0.5595703
632,-22.875,-55,-25.75,0.1625977,0.06005859,1.098633,0.5166016,-0.1230469,-0.5595703
634,-35.5625,-62.125,-26.25,0.1625977,-0.008789063,1.079102,0.503418,-0.1103516,-0.5595703
635,-42.25,-74,-16.875,0.1625977,-0.05517578,1.083008,0.503418,-0.1103516,-0.5595703
636,-50.9375,-88.8125,-9.8125,0.2700195,-0.01269531,1.043457,0.503418,-0.09765625,-0.5625
637,-48,-107.3125,-3.6875,0.2265625,-0.004882813,1,0.4873047,-0.09765625,-0.5649414
638,-47,-115.25,-1.625,0.2739258,0.06396484,0.9882813,0.4873047,-0.09765625,-0.5649414
639,-47.75,-118.25,-1.1875,0.3061523,0.02539063,1.05127,0.4741211,-0.08984375,-0.5727539
640,-41.75,-118.25,3.0625,0.2739258,-0.02050781,1.09082,0.4658203,-0.09472656,-0.5703125
641,-38.125,-114.3125,4.125,0.3300781,0.02929688,1.067383,0.4658203,-0.09472656,-0.5703125
642,-36.8125,-109,0.625,0.2700195,-0.0009765625,1.086914,0.4418945,-0.07958984,-0.5756836
643,-33.3125,-101.1875,-0.8125,0.2265625,-0.02050781,1.059082,0.4418945,-0.07958984,-0.5756836
644,-23.6875,-97,-3.5,0.2739258,0.01367188,1.138184,0.434082,-0.08203125,-0.5859375
645,-19.625,-93.6875,-8.25,0.2978516,0.02539063,1.106934,0.4233398,-0.07421875,-0.5888672
646,-19.625,-91.125,-12.6875,0.3217773,0.001953125,1.015625,0.4233398,-0.07421875,-0.5888672
647,-7.0625,-95.4375,-13.3125,0.1748047,-0.08642578,1.05127,0.4018555,-0.07177734,-0.5834961
648,12.4375,-102.6875,-13.625,0.4052734,0.05615234,1.035645,0.4018555,-0.07177734,-0.5834961
649,-6.125,-94.25,-25.5625,0.3657227,0.01757813,1.031738,0.3964844,-0.07421875,-0.5805664
650,1.6875,-91.9375,-29.5625,0.3417969,0.009765625,1.039551,0.394043,-0.06933594,-0.59375
651,13.9375,-91.6875,-32.5625,0.3217773,-0.004882813,1.055176,0.394043,-0.06933594,-0.59375
652,6.1875,-110.75,-51.0625,0.2026367,0.1333008,0.9169922,0.375,-0.06933594,-0.59375
653,-28,-114.0625,-41.875,0.4375,-0.02832031,0.8496094,0.3564453,-0.06933594,-0.59375
654,3.4375,-99.5625,-46.5,0.5087891,0.005859375,1.003906,0.3564453,-0.06933594,-0.59375
655,4.6875,-73.375,-48.0625,0.453125,-0.02050781,1.102539,0.3486328,-0.06933594,-0.5805664
656,33.5625,-62.75,-43.6875,0.3378906,-0.09375,1.126465,0.3486328,-0.06933594,-0.5805664
657,60.6875,-66.375,-44.1875,0.3696289,-0.06689453,1.150391,0.3349609,-0.06933594,-0.5913086
658,48.0625,-57.1875,-53.8125,0.453125,0.09472656,1.075195,0.3242188,-0.07958984,-0.5991211
659,15.5625,-38,-55.9375,0.4013672,-0.05517578,1.106934,0.3242188,-0.07958984,-0.5991211
660,18.4375,-17.6875,-49.8125,0.4414063,-0.1015625,1.071289,0.3139648,-0.07714844,-0.5966797
661,23.5,-1.6875,-44.1875,0.3735352,-0.09375,1.055176,0.3139648,-0.07714844,-0.5966797
662,29.0625,7.1875,-41.4375,0.4013672,-0.008789063,1.047363,0.3188477,-0.08984375,-0.5888672
663,20.9375,18.875,-43.3125,0.4291992,0.009765625,1.071289,0.3085938,-0.1000977,-0.5966797
664,11.9375,34.4375,-45.25,0.4331055,-0.02441406,1.086914,0.3085938,-0.1000977,-0.5966797
665,11.5,51.1875,-43.0625,0.425293,-0.09375,1.122559,0.3139648,-0.08740234,-0.6069336
666,14.75,66.0625,-38.6875,0.3935547,-0.04736328,1.059082,0.3139648,-0.08740234,-0.6069336
667,12.75,76.5,-37.6875,0.3857422,0.02148438,1.114746,0.3139648,-0.08740234,-0.6069336
668,10.0625,84.125,-39.4375,0.3657227,-0.01269531,1.122559,0.3295898,-0.09472656,-0.59375
669,7.5625,91.0625,-39.1875,0.3696289,-0.05908203,1.106934,0.3295898,-0.09472656,-0.59375
670,5.8125,97.3125,-35.8125,0.3696289,-0.04003906,1.114746,0.3325195,-0.08740234,-0.5888672
671,5,100.875,-32.8125,0.3535156,-0.06689453,1.122559,0.3588867,-0.09228516,-0.6020508
672,7.0625,104.375,-32.5625,0.2583008,-0.02050781,1.122559,0.3588867,-0.09228516,-0.6020508
673,6.375,107.5625,-35.3125,0.234375,0.03710938,1.134277,0.375,-0.09472656,-0.59375
674,7.4375,113.0625,-39.1875,0.206543,0.001953125,1.14209,0.375,-0.09472656,-0.59375
675,13.5625,119.8125,-44.0625,0.2304688,0.02148438,1.150391,0.375,-0.08984375,-0.59375
676,15.5,123.125,-46.0625,0.1787109,0.02929688,1.126465,0.3994141,-0.1049805,-0.5834961
677,13.25,120.5,-46.875,0.1943359,0.03320313,1.134277,0.3994141,-0.1049805,-0.5834961
678,9.8125,114.3125,-47.0625,0.1904297,0.01367188,1.138184,0.4042969,-0.09472656,-0.59375
679,10.25,104.625,-45.9375,0.1665039,-0.004882813,1.146484,0.4042969,-0.09472656,-0.59375
680,3,95.1875,-44.625,0.1425781,0.01757813,1.14209,0.4179688,-0.09228516,-0.578125
681,-3,83.6875,-42.625,0.09912109,-0.0009765625,1.150391,0.4365234,-0.1000977,-0.5834961
682,-6.1875,75.375,-41.5625,0.08691406,-0.008789063,1.158203,0.4365234,-0.1000977,-0.5834961
683,-6.5,71.4375,-40.5,0.1108398,-0.02050781,1.173828,0.4365234,-0.1049805,-0.5805664
684,-10.9375,63.375,-39.625,0.06298828,0.01367188,1.114746,0.4418945,-0.09228516,-0.5649414
685,-17.875,48.4375,-39.9375,0.01953125,0.009765625,1.122559,0.4418945,-0.09228516,-0.5649414
686,-19.375,36.3125,-40.25,0.03515625,-0.01269531,1.122559,0.4443359,-0.09765625,-0.5727539
687,-16,29.25,-40.625,0.06298828,-0.0009765625,1.094727,0.4443359,-0.09765625,-0.5727539
688,-10.4375,18.6875,-40.4375,0.02734375,-0.01269531,1.102539,0.4550781,-0.08740234,-0.5888672
689,-9.125,15.625,-41.3125,0.1469727,-0.0009765625,1.094727,0.4658203,-0.07958984,-0.578125
690,-7,13.3125,-39.1875,0.1069336,-0.04736328,1.130371,0.4658203,-0.07958984,-0.578125
691,-8.25,12.625,-37.75,0.1469727,-0.02832031,1.134277,0.4604492,-0.07714844,-0.5805664
692,-4,9.5625,-39.25,0.09521484,0.001953125,1.122559,0.4604492,-0.07714844,-0.5805664
693,-8.75,9.25,-41.375,0.08691406,-0.02832031,1.169922,0.4526367,-0.07714844,-0.5727539
694,-8.875,7.8125,-44.4375,0.1269531,-0.004882813,1.154297,0.4550781,-0.08203125,-0.5888672
695,-12.3125,5.0625,-46.25,0.1547852,0.01757813,1.11084,0.4550781,-0.08203125,-0.5888672
696,-14.625,3.625,-45.75,0.1826172,-0.004882813,1.134277,0.4580078,-0.07421875,-0.578125
697,-14,1.4375,-43.9375,0.1665039,-0.01269531,1.130371,0.4604492,-0.07177734,-0.5625
699,-15.125,3.375,-41.8125,0.1665039,-0.02441406,1.09082,0.4604492,-0.07177734,-0.5625
700,-15.625,3.4375,-40.1875,0.1508789,-0.01660156,1.098633,0.4658203,-0.07177734,-0.5756836
701,-12.4375,-1.9375,-43,0.09912109,0.03320313,1.193848,0.4658203,-0.07177734,-0.5756836
702,-17.875,-2.4375,-45.625,0.09521484,0.02148438,1.086914,0.46875,-0.06689453,-0.5673828
703,-21,-3.75,-44.625,0.1547852,0.01367188,1.14209,0.4526367,-0.06152344,-0.578125
704,-18.875,-4.875,-44.0625,0.1704102,-0.02050781,1.138184,0.4526367,-0.06152344,-0.578125
705,-20.6875,-2.5,-42.4375,0.1787109,-0.01660156,1.122559,0.4526367,-0.06152344,-0.578125
706,-21.75,-0.9375,-41.375,0.1269531,-0.004882813,1.158203,0.4526367,-0.06152344,-0.578125
707,-23.8125,2.125,-41,0.1508789,0.01367188,1.14209,0.4526367,-0.05126953,-0.5727539
708,-24.25,5.875,-41.875,0.1586914,0.02148438,1.106934,0.4633789,-0.04882813,-0.5625
709,-21.625,2.9375,-42.125,0.1625977,-0.004882813,1.169922,0.4633789,-0.04882813,-0.5625
710,-24.25,3.8125,-41.625,0.1230469,0.01757813,1.122559,0.4526367,-0.04101563,-0.5756836
711,-22.6875,1.625,-41.125,0.1386719,0.01367188,1.138184,0.4526367,-0.04101563,-0.5756836
712,-21.875,-0.5,-40.4375,0.1547852,0.02929688,1.134277,0.4526367,-0.04638672,-0.5756836
713,-24.4375,-4.75,-40.4375,0.1308594,-0.01660156,1.150391,0.4550781,-0.04101563,-0.5756836
714,-26.8125,-6.5,-40.625,0.1386719,0.03320313,1.134277,0.4550781,-0.04101563,-0.5756836
715,-28.75,-10.5625,-43.4375,0.1308594,0.01367188,1.197754,0.4443359,-0.03613281,-0.5649414
716,-30.75,-11.6875,-43.9375,0.1943359,-0.02832031,1.193848,0.4443359,-0.03076172,-0.5727539
717,-28.8125,-8,-43.25,0.2182617,-0.0009765625,1.14209,0.4443359,-0.03076172,-0.5727539
718,-27.6875,-0.875,-42.875,0.2143555,-0.01660156,1.177734,0.4443359,-0.01806641,-0.5756836
719,-29.125,4.1875,-42.625,0.1826172,-0.05517578,1.154297,0.4443359,-0.01806641,-0.5756836
720,-28.5625,9.5625,-40.75,0.1943359,-0.07470703,1.162109,0.4365234,-0.0234375,-0.5703125
721,-29.375,18.9375,-40.0625,0.1943359,-0.02441406,1.158203,0.4443359,-0.01318359,-0.5727539
722,-29.125,25.3125,-40.125,0.1987305,-0.008789063,1.130371,0.4443359,-0.01318359,-0.5727539
723,-32.125,27.3125,-40.8125,0.222168,0.009765625,1.09082,0.4365234,-0.01318359,-0.5703125
724,-33.5,26.8125,-41.125,0.2382813,0.01367188,1.098633,0.4365234,-0.01318359,-0.5703125
725,-34.75,28.8125,-42.4375,0.2783203,-0.04394531,1.154297,0.4418945,-0.01025391,-0.5673828
726,-35.1875,38.1875,-39.75,0.2421875,-0.1132813,1.059082,0.4443359,0,-0.5649414
727,-31.4375,51.625,-37.75,0.1748047,-0.1015625,1.130371,0.4443359,0,-0.5649414
728,-29.875,68.4375,-38.125,0.2026367,0.001953125,1.122559,0.4550781,0.001953125,-0.5493164
729,-29.125,75.3125,-41.6875,0.1508789,-0.04003906,1.055176,0.4604492,0,-0.5546875
730,-46,53.875,-42.8125,0.09912109,0.01757813,0.9526367,0.4604492,0,-0.5546875
731,-52.625,27.375,-44.9375,0.1191406,-0.01660156,1.055176,0.4741211,0.01220703,-0.5463867
732,-45.875,27.4375,-45.625,0.1826172,-0.04736328,1.035645,0.4741211,0.01220703,-0.5463867
733,-38.3125,22.5,-41.0625,0.1704102,-0.06689453,1.086914,0.4711914,0.006835938,-0.5493164
734,-30.375,17,-36.75,0.1347656,-0.07861328,1.079102,0.4633789,0.02246094,-0.5439453
735,-26.9375,17.875,-33.625,0.1547852,-0.05908203,1.094727,0.4633789,0.02246094,-0.5439453
736,-23.5625,19.25,-32.1875,0.1469727,-0.03613281,1.150391,0.4711914,0.02978516,-0.5463867
737,-20.1875,23.875,-31,0.08691406,-0.06689453,1.134277,0.4711914,0.02978516,-0.5463867
738,-16.625,28.1875,-31,0.07519531,-0.09375,1.150391,0.4604492,0.03759766,-0.5415039
739,-13.625,31.75,-28,0.1269531,-0.08642578,1.09082,0.4604492,0.03759766,-0.5415039
740,-12.625,35.0625,-23.9375,0.05908203,-0.125,1.134277,0.4604492,0.03759766,-0.5415039
741,-13.125,38.5625,-18.875,0.02734375,-0.125,1.134277,0.4765625,0.03759766,-0.5385742
742,-13.125,37.8125,-16.8125,0.015625,-0.09375,1.114746,0.4765625,0.03759766,-0.5385742
743,-15.75,34.375,-14.5625,-0.07177734,-0.03613281,1.122559,0.4765625,0.03759766,-0.5385742
744,-18.625,30.9375,-11.9375,-0.04003906,-0.07080078,1.14209,0.4794922,0.04003906,-0.5307617
745,-20.125,26.1875,-8.6875,-0.07177734,-0.08251953,1.102539,0.4794922,0.04003906,-0.5307617
746,-19,20.6875,-2.6875,-0.1074219,-0.109375,1.150391,0.4794922,0.03759766,-0.5332031
747,-26.25,17.1875,2.9375,-0.1352539,-0.03222656,1.035645,0.4819336,0.04541016,-0.5283203
748,-35.6875,15.5,6.1875,-0.1391602,-0.1401367,1.11084,0.4819336,0.04541016,-0.5283203
749,-43.875,17.125,15.125,0.04345703,-0.1289063,1.102539,0.4873047,0.04296875,-0.5307617
750,-86.875,28.5,4.375,0.03955078,-0.0009765625,0.9169922,0.4873047,0.04296875,-0.5307617
751,-50,24.4375,-2.9375,0.06738281,-0.1289063,1.422852,0.4926758,0.06054688,-0.5307617
752,-24.6875,19.75,-4.9375,0.07128906,-0.2138672,1.181641,0.4873047,0.06054688,-0.5229492
753,-24.75,20.125,-4.75,-0.00390625,-0.1982422,1.173828,0.4873047,0.06054688,-0.5229492
754,-17.875,17.9375,-2.875,0.007324219,-0.2021484,1.126465,0.4897461,0.06591797,-0.5175781
755,-12.75,12.8125,-3,-0.04785156,-0.1674805,1.071289,0.4897461,0.06591797,-0.5175781
756,-10.375,9.6875,-0.375,-0.01611328,-0.1943359,1.130371,0.4873047,0.05566406,-0.5151367
757,-8.75,6.125,-0.75,-0.07568359,-0.1943359,1.09082,0.4926758,0.06591797,-0.5151367
758,-13.75,4.375,1.6875,-0.1196289,-0.1865234,1.086914,0.4926758,0.06591797,-0.5151367
759,-17.25,3.125,1.25,-0.01611328,-0.1713867,1.09082,0.4873047,0.07373047,-0.5175781
760,-17.625,-0.3125,-0.375,-0.05957031,-0.1713867,1.158203,0.4897461,0.07080078,-0.5175781
761,-20.125,-1.0625,-1.25,-0.00390625,-0.1401367,1.114746,0.4897461,0.07080078,-0.5175781
762,-22.4375,-0.9375,-4.4375,-0.04785156,-0.1362305,1.118652,0.484375,0.07617188,-0.512207
764,-22.3125,4.375,-8.9375,-0.08349609,-0.05908203,1.146484,0.484375,0.07617188,-0.512207
765,-26.4375,17.125,-19.125,-0.1274414,-0.04736328,1.185547,0.4951172,0.07861328,-0.5097656
766,-23.8125,20.25,-25.75,-0.1513672,-0.2060547,1.098633,0.4897461,0.08349609,-0.5175781
767,-43.625,16.25,-8.5,-0.9829102,-0.4916992,1.071289,0.4897461,0.08349609,-0.5175781
768,-34.875,30.875,-21.8125,-0.4658203,0.01757813,1.071289,0.4926758,0.08349609,-0.5097656
769,-44.75,16.75,-51.8125,-0.2548828,-0.1479492,1.102539,0.4926758,0.08349609,-0.5097656
770,-24.25,-1.3125,-73,-0.1313477,-0.1904297,1.14209,0.4897461,0.09375,-0.512207
771,-16.1875,-12.125,-80.0625,-0.02392578,-0.2446289,1.075195,0.4897461,0.1015625,-0.4990234
772,-14.9375,-17.1875,-73.875,0.1943359,-0.3452148,1.063477,0.4897461,0.1015625,-0.4990234
773,-9.0625,-23.75,-60.9375,0.3178711,-0.3759766,1.094727,0.484375,0.08886719,-0.5097656
774,-10.375,-28.1875,-50.9375,0.2939453,-0.3256836,1.11084,0.4794922,0.1040039,-0.5073242
775,-5.1875,-28.3125,-42.9375,0.5249023,-0.3759766,1.126465,0.4794922,0.1040039,-0.5073242
776,-0.75,-24.625,-31.5625,0.5488281,-0.4067383,1.075195,0.4765625,0.09912109,-0.5043945
777,4.25,-23.6875,-19.8125,0.4453125,-0.402832,1.102539,0.4765625,0.09912109,-0.5043945
778,7.1875,-19.5,-6.625,0.1704102,-0.2832031,1.122559,0.4765625,0.09912109,-0.5043945
779,5.9375,-13.5,-0.3125,0.04736328,-0.2138672,1.134277,0.4711914,0.09667969,-0.5073242
780,4.0625,-13.625,-0.75,0.01953125,-0.1904297,1.134277,0.4711914,0.09667969,-0.5073242
781,2.6875,-9.8125,-2.1875,0.06738281,-0.175293,1.094727,0.4711914,0.09667969,-0.5073242
782,-0.3125,-3.375,-7.5,0.04736328,-0.2021484,1.09082,0.4711914,0.09667969,-0.5073242
783,-1,3.0625,-7.125,0.03125,-0.1982422,1.122559,0.4658203,0.1040039,-0.512207
784,-1.375,7.4375,-7.125,0.015625,-0.2290039,1.059082,0.46875,0.09667969,-0.5073242
785,-1.9375,7,-1.875,-0.05566406,-0.2329102,1.043457,0.46875,0.09667969,-0.5073242
786,-1.3125,5.9375,2.75,0.03955078,-0.2329102,1.039551,0.449707,0.109375,-0.5019531
787,1.25,7.6875,1.875,0.03955078,-0.2675781,1.059082,0.449707,0.109375,-0.5019531
788,0.0625,10.1875,2.75,0.03125,-0.2792969,1.098633,0.4633789,0.1069336,-0.512207
789,-0.375,8.625,0.9375,0.0234375,-0.2485352,1.035645,0.4633789,0.09667969,-0.512207
790,-1.3125,2.8125,-1.125,0.007324219,-0.2368164,1.102539,0.4633789,0.09667969,-0.512207
791,0.875,-6.3125,-6.75,0.007324219,-0.2485352,1.055176,0.4526367,0.09375,-0.5097656
792,-0.4375,-9.25,-9.8125,0.02734375,-0.2792969,1.14209,0.46875,0.09667969,-0.5097656
793,0.5625,-4,-10.5,0.015625,-0.2602539,1.102539,0.46875,0.09667969,-0.5097656
794,1.25,0.9375,-9.125,0.03955078,-0.2602539,1.122559,0.4550781,0.1015625,-0.5073242
795,-0.0625,0.8125,-6.25,0.007324219,-0.2641602,1.067383,0.4550781,0.1015625,-0.5073242
796,0,-3.1875,-4.3125,0.007324219,-0.2060547,1.043457,0.4633789,0.1069336,-0.4990234
797,0.1875,-6,-4.25,0.03515625,-0.2329102,1.09082,0.4604492,0.1015625,-0.512207
798,-0.25,-10.25,-3.375,0.03955078,-0.2524414,1.075195,0.4604492,0.1015625,-0.512207
799,-0.6875,-16.5,-3.5625,-0.02783203,-0.2177734,1.039551,0.4526367,0.1069336,-0.5043945
800,2.125,-25.125,-1.5625,0.04345703,-0.2792969,1.086914,0.4526367,0.1069336,-0.5043945
801,-0.4375,-29.3125,3.375,0.0234375,-0.2329102,1.075195,0.4472656,0.09667969,-0.5043945
802,3.375,-28.75,8,-0.04394531,-0.2792969,1.09082,0.449707,0.09912109,-0.5151367
803,5.5625,-27.875,10.4375,0.09082031,-0.2368164,1.079102,0.449707,0.09912109,-0.5151367
804,10.0625,-28,4.6875,0.07910156,-0.2021484,1.11084,0.449707,0.09667969,-0.5200195
805,11,-26.5625,0,-0.01171875,-0.2832031,1.075195,0.4472656,0.1015625,-0.5151367
806,2.25,-21.875,5.8125,-0.1152344,-0.3027344,1.169922,0.4472656,0.1015625,-0.5151367
807,19.375,-20.4375,5.0625,0.02734375,-0.2485352,1.098633,0.4472656,0.1015625,-0.5073242
808,18.5625,-17.4375,0,0.1625977,-0.2602539,1.071289,0.4472656,0.1015625,-0.5073242
809,17.9375,-12.75,-6.0625,0.01953125,-0.1635742,1.079102,0.4443359,0.08349609,-0.5200195
810,21.0625,-12.625,-4.125,-0.1391602,-0.159668,1.083008,0.4394531,0.09667969,-0.5200195
811,28.25,-12.3125,-2.3125,-0.1274414,-0.1713867,1.11084,0.4394531,0.09667969,-0.5200195
812,36.5625,-15.5,-0.8125,-0.1152344,-0.1943359,1.197754,0.449707,0.09667969,-0.5283203
813,39.8125,-19,4.1875,-0.04003906,-0.1479492,1.134277,0.449707,0.09667969,-0.5283203
814,38.25,-16.9375,8,0.0234375,-0.2216797,1.007813,0.4418945,0.09375,-0.5253906
815,34.875,-13.375,9.5625,0.1108398,-0.1982422,1.083008,0.4418945,0.09375,-0.5253906
816,28.5625,-12.5,9.75,0.2700195,-0.1904297,1.086914,0.4418945,0.09375,-0.5253906
817,24.9375,-7.5625,5.8125,0.2382813,-0.144043,1.114746,0.4287109,0.07861328,-0.5332031
818,22.5,0.25,6.1875,0.1987305,-0.159668,1.094727,0.4287109,0.07861328,-0.5332031
819,19.1875,8.25,4.75,0.1865234,-0.144043,1.075195,0.4287109,0.07861328,-0.5332031
820,16.625,14.9375,7,0.2182617,-0.2177734,1.138184,0.434082,0.07373047,-0.5175781
821,13.0625,24.0625,8.0625,0.2382813,-0.1826172,1.122559,0.434082,0.07373047,-0.5175781
822,10.1875,31.8125,10,0.01953125,-0.1826172,1.079102,0.4443359,0.06591797,-0.5253906
823,6.3125,28.4375,25.1875,-0.05957031,-0.1787109,1.126465,0.4443359,0.07617188,-0.5283203
824,7.1875,19.6875,33.0625,0.03955078,-0.1557617,1.130371,0.4443359,0.07617188,-0.5283203
825,1.4375,8.4375,44.5625,-0.02783203,-0.1210938,1.154297,0.4472656,0.07373047,-0.5229492
826,7.0625,4.6875,54.625,0.1191406,-0.1362305,1.20166,0.4472656,0.07373047,-0.5229492
827,5.5625,10.625,53.25,0.1987305,-0.08984375,1.150391,0.4526367,0.07080078,-0.5229492
829,2.125,13.9375,44.0625,0.1787109,-0.1015625,1.166016,0.4550781,0.06591797,-0.5332031
830,-2.5625,0.625,40.25,0.06738281,-0.2060547,1.189941,0.4550781,0.06591797,-0.5332031
831,-0.625,1.8125,35,0.1469727,-0.2021484,1.166016,0.4550781,0.07080078,-0.5253906
832,-4.9375,9.5625,16.8125,0.2661133,-0.1328125,1.20166,0.4550781,0.07080078,-0.5253906
833,-5.8125,23.75,-8.125,0.2460938,-0.1401367,1.181641,0.4526367,0.06347656,-0.5229492
834,-12.6875,26.5,-15.1875,-0.02392578,-0.2407227,1.162109,0.4550781,0.06835938,-0.5151367
835,-10.0625,18.25,-14.3125,-0.02392578,-0.2485352,1.166016,0.4550781,0.06835938,-0.5151367
836,-8.8125,20,-9,-0.0078125,-0.2060547,1.134277,0.4658203,0.06835938,-0.5283203
837,-5.75,20.3125,-3.4375,-0.02001953,-0.1557617,1.14209,0.4550781,0.07080078,-0.5200195
838,-4.625,19.9375,-0.0625,0.05126953,-0.1943359,1.122559,0.4550781,0.07080078,-0.5200195
839,-3.25,22.1875,7.5625,0.03515625,-0.1787109,1.158203,0.4741211,0.07373047,-0.5175781
840,-6.0625,22.25,17.6875,0.03955078,-0.109375,1.094727,0.4741211,0.07373047,-0.5175781
841,-7.6875,10.9375,20.3125,0.03955078,-0.1943359,1.11084,0.4794922,0.06835938,-0.512207
842,-8.625,9.9375,15.5,0.05126953,-0.1362305,1.106934,0.4765625,0.07373047,-0.5175781
843,-10.5625,2.0625,12.1875,0.03125,-0.1713867,1.130371,0.4765625,0.07373047,-0.5175781
844,-8.625,-2.125,9.6875,0.015625,-0.2060547,1.138184,0.4819336,0.06835938,-0.5229492
845,-8.1875,-3.375,11.6875,-0.02392578,-0.1904297,1.098633,0.4819336,0.06835938,-0.5229492
846,-5.875,-8.6875,13.875,-0.02392578,-0.2021484,1.114746,0.4741211,0.06835938,-0.5229492
847,-7.5,-12.9375,15.0625,-0.1074219,-0.2250977,1.027832,0.484375,0.06591797,-0.5151367
848,-6.6875,-24,20.6875,-0.04785156,-0.1171875,1.09082,0.484375,0.06591797,-0.5151367
849,-8.3125,-32.375,15.5625,0.04345703,-0.1328125,1.079102,0.4794922,0.06835938,-0.5200195
850,-9.0625,-38.25,12.875,-0.1152344,-0.1401367,1.106934,0.4711914,0.07080078,-0.5175781
851,-12.8125,-30.9375,17.1875,-0.2070313,-0.1479492,1.09082,0.4711914,0.07080078,-0.5175781
852,-9.1875,-39,22.125,-0.2666016,-0.2021484,1.055176,0.4711914,0.07617188,-0.5229492
853,-11.1875,-62.75,37.4375,-0.394043,-0.1362305,1.09082,0.4711914,0.07617188,-0.5229492
854,1.4375,-73.9375,43.0625,-0.1074219,-0.1674805,1.245117,0.4711914,0.07617188,-0.5229492
855,26.9375,-50.375,54.0625,0.04345703,-0.2407227,1.122559,0.4550781,0.07861328,-0.5253906
856,34.25,-47.4375,38.6875,0.4013672,-0.1865234,1.098633,0.4550781,0.07861328,-0.5253906
857,10.75,-49.25,43.625,0.2939453,-0.3256836,1.039551,0.4550781,0.07861328,-0.5253906
858,24.0625,-13.25,14.75,0.6523438,-0.01660156,1.055176,0.4550781,0.07861328,-0.5253906
859,19.9375,10.875,-3.125,0.5605469,-0.1865234,1.05127,0.4604492,0.06835938,-0.5385742
860,14.5,29.0625,-9.625,0.3735352,-0.1401367,1.106934,0.4526367,0.05566406,-0.5283203
861,20.3125,44,-6.875,0.1625977,-0.08642578,1.086914,0.4526367,0.05566406,-0.5283203
862,11.5,42.625,-15.125,0.09912109,-0.05908203,1.015625,0.4550781,0.05566406,-0.5332031
863,-1.9375,28.875,-26.8125,0.05126953,-0.1557617,1,0.4550781,0.05566406,-0.5332031
864,-7.1875,16.75,-35.3125,0.0234375,-0.1904297,1.031738,0.4604492,0.05566406,-0.5229492
865,-8.625,11.4375,-44.625,0.08691406,-0.2099609,1.067383,0.4580078,0.07080078,-0.5283203
866,-8.3125,10.75,-54,0.1030273,-0.2250977,1.063477,0.4580078,0.07080078,-0.5283203
867,-6.5,11.5,-61.9375,0.08300781,-0.2216797,1.047363,0.4526367,0.05566406,-0.5229492
868,-1.75,11.25,-65.9375,0.05517578,-0.2177734,1.059082,0.4741211,0.07080078,-0.5283203
869,3.875,10.5,-69.8125,0.03955078,-0.2329102,1.102539,0.4741211,0.07080078,-0.5283203
870,10.125,9.1875,-72.1875,0.05126953,-0.2216797,1.09082,0.4526367,0.06835938,-0.5332031
871,12.9375,8.875,-75.5,0.09912109,-0.2290039,1.059082,0.4526367,0.06835938,-0.5332031
872,14.9375,4.5,-73.5625,0.06738281,-0.2485352,1.05127,0.4443359,0.07080078,-0.5229492
873,12.6875,4.9375,-67.6875,0.06738281,-0.2216797,1.071289,0.4604492,0.06054688,-0.5307617
874,8.75,4.3125,-59.9375,0.08300781,-0.1518555,1.09082,0.4604492,0.06054688,-0.5307617
875,5.5625,5.6875,-54.375,0.03955078,-0.1289063,1.11084,0.4472656,0.06591797,-0.5253906
876,0.3125,9.125,-46.8125,0.03515625,-0.1713867,1.083008,0.4472656,0.06591797,-0.5253906
877,-2.125,11.875,-37.4375,0.08300781,-0.1904297,1.09082,0.4394531,0.07373047,-0.5307617
878,-4.3125,17.0625,-28.25,0.07128906,-0.2368164,1.114746,0.434082,0.08105469,-0.5229492
879,-5.375,19.75,-15.875,0.0234375,-0.2485352,1.14209,0.434082,0.08105469,-0.5229492
880,-5.1875,21.5625,-5.4375,0.07128906,-0.2060547,1.114746,0.4443359,0.08105469,-0.5229492
881,-7.125,23.1875,2.0625,0.01953125,-0.2250977,1.118652,0.4418945,0.07373047,-0.5439453
882,-6,22.375,10.5,0.003417969,-0.2485352,1.086914,0.4418945,0.07373047,-0.5439453
883,-5.9375,22.9375,20.0625,-0.00390625,-0.2407227,1.162109,0.449707,0.07080078,-0.5200195
884,-2.5625,23.375,26.6875,0.015625,-0.2446289,1.154297,0.449707,0.07080078,-0.5200195
885,-6.9375,24.125,33.0625,0.05517578,-0.2177734,1.193848,0.4418945,0.08105469,-0.5253906
886,-7.1875,24.25,36.125,0.08300781,-0.1635742,1.114746,0.4580078,0.07617188,-0.5283203
887,-9,28.4375,38.3125,0.1069336,-0.1132813,1.14209,0.4580078,0.07617188,-0.5283203
888,-12,31.375,37.625,0.07910156,-0.1054688,1.106934,0.4633789,0.07373047,-0.5253906
889,-12.5625,28.875,38.75,0.08300781,-0.1328125,1.071289,0.4633789,0.07373047,-0.5253906
890,-11.6875,28.75,39.25,0.04736328,-0.144043,1.098633,0.4741211,0.07373047,-0.5073242
891,-14.5,23.1875,32,0.05908203,-0.09375,1.05127,0.4741211,0.07373047,-0.5073242
892,-15.0625,-3.0625,-0.0625,0.1069336,-0.1674805,1.264648,0.4741211,0.07373047,-0.5073242
894,-3.875,20.125,-11.375,-0.05566406,-0.1362305,1.177734,0.4711914,0.07617188,-0.5175781
895,-6.8125,10,-22.8125,-0.02392578,-0.1328125,1.162109,0.4711914,0.07617188,-0.5175781
896,-4.25,21.0625,-32.25,0.1386719,-0.2446289,1.138184,0.4711914,0.07617188,-0.5175781
897,-2.375,39.6875,-10.875,0.1425781,-0.144043,1.083008,0.4765625,0.08105469,-0.5175781
898,-11.75,4,-31.8125,0.02734375,-0.06298828,1.071289,0.4765625,0.08105469,-0.5175781
899,-6.875,25.125,-53.4375,-0.1274414,-0.2290039,1.14209,0.4765625,0.07861328,-0.5175781
900,-5.625,12.3125,-30.8125,-0.1992188,-0.2563477,1.146484,0.4741211,0.07617188,-0.5229492
901,0.5,11.25,-14.1875,-0.04003906,-0.06689453,1.134277,0.4741211,0.07617188,-0.5229492
902,-1.3125,9.9375,-16.75,0.07128906,-0.07080078,1.098633,0.4794922,0.07861328,-0.512207
903,-5.9375,11.625,-17.125,0.09521484,-0.1328125,1.14209,0.4794922,0.07861328,-0.512207
904,-9.125,12.5,-14.8125,0.04736328,-0.1479492,1.11084,0.484375,0.08349609,-0.5151367
905,-11.9375,11.6875,-14.8125,0.0234375,-0.159668,1.14209,0.4819336,0.08886719,-0.5229492
906,-14.4375,10.6875,-16.25,0.03515625,-0.1479492,1.114746,0.4819336,0.08886719,-0.5229492
907,-15.4375,10.125,-15.625,0.007324219,-0.1479492,1.130371,0.4765625,0.08349609,-0.5097656
908,-14.125,9.9375,-13.6875,0.04345703,-0.1557617,1.154297,0.4765625,0.08349609,-0.5097656
909,-13.5,11,-12.3125,0.06738281,-0.1826172,1.114746,0.46875,0.08349609,-0.5151367
910,-15,10.9375,-12.375,0.07910156,-0.2250977,1.130371,0.4794922,0.08349609,-0.5151367
911,-14.9375,11.125,-12.8125,0.05126953,-0.2407227,1.118652,0.4794922,0.08349609,-0.5151367
912,-15.625,11.375,-12.875,0.03125,-0.1982422,1.098633,0.4765625,0.09667969,-0.5151367
913,-17.4375,11.375,-12.5,0.05126953,-0.1826172,1.11084,0.4765625,0.08886719,-0.512207
914,-21.1875,11.875,-12,0.05126953,-0.1479492,1.138184,0.4765625,0.08886719,-0.512207
915,-24.1875,13.1875,-11.3125,0.05126953,-0.1635742,1.09082,0.4819336,0.09130859,-0.5019531
916,-27.3125,14.5,-10.25,0.03125,-0.1635742,1.09082,0.4819336,0.09130859,-0.5019531
917,-29.375,15,-8.75,0.02734375,-0.1865234,1.079102,0.4765625,0.1142578,-0.5019531
918,-30.8125,16.125,-8,0.03515625,-0.1982422,1.134277,0.4741211,0.1040039,-0.512207
919,-30.25,17.0625,-7.3125,0.01123047,-0.2329102,1.158203,0.4741211,0.1040039,-0.512207
920,-28.9375,16.875,-5.375,-0.02001953,-0.2641602,1.083008,0.484375,0.1069336,-0.5019531
921,-27,15.75,-6.1875,-0.03564453,-0.2792969,1.118652,0.484375,0.1069336,-0.5019531
922,-27.625,14.6875,-8.375,-0.02783203,-0.2675781,1.122559,0.4765625,0.109375,-0.5043945
923,-26.1875,13.8125,-9.125,-0.04785156,-0.2138672,1.079102,0.4794922,0.1118164,-0.496582
924,-27.125,13.125,-8.5,-0.04785156,-0.1865234,1.083008,0.4794922,0.1118164,-0.496582
925,-26.75,13.5625,-7.5625,-0.02783203,-0.1713867,1.079102,0.4794922,0.1171875,-0.496582
926,-28.8125,14.875,-4.6875,-0.06787109,-0.2329102,1.075195,0.4819336,0.1171875,-0.4912109
927,-27.4375,16.9375,-6.875,-0.05566406,-0.2060547,1.122559,0.4819336,0.1171875,-0.4912109
928,-29.375,16.4375,-2.125,-0.1196289,-0.3217773,0.9760742,0.4873047,0.1196289,-0.480957
929,-11.625,13.5625,-0.0625,-0.03173828,-0.2792969,0.9760742,0.4873047,0.1196289,-0.480957
930,-13.125,20.625,-1.6875,0.1586914,-0.2368164,0.9760742,0.4873047,0.1196289,-0.480957
931,-3.875,18.75,-2.5,0.03125,-0.3027344,0.984375,0.4980469,0.1274414,-0.4887695
932,-0.625,20.5,4.6875,-0.1196289,-0.3217773,1.011719,0.4980469,0.1274414,-0.4887695
933,-10.625,26.625,1.625,-0.1196289,-0.2602539,1.039551,0.4980469,0.1274414,-0.4887695
934,-8.75,24.75,-2.25,-0.08740234,-0.2290039,1.122559,0.4980469,0.1274414,-0.4887695
935,-5.25,25.5,-0.3125,-0.05175781,-0.2368164,1.122559,0.4951172,0.1220703,-0.4780273
936,-7.625,29.75,1.5,0.09521484,-0.2753906,1.102539,0.5004883,0.1274414,-0.4887695
937,-7.0625,28.5,11.375,-0.03173828,-0.3720703,1.106934,0.5004883,0.1274414,-0.4887695
938,-3.625,26.625,17.9375,-0.09130859,-0.3334961,1.067383,0.4980469,0.1347656,-0.4780273
939,-0.4375,28.3125,8.1875,-0.09130859,-0.3066406,1.059082,0.4980469,0.1347656,-0.4780273
940,3.625,29.4375,-2.0625,-0.05566406,-0.3452148,1.083008,0.5087891,0.1298828,-0.4833984
941,7.625,30.25,-8.875,-0.04003906,-0.3452148,1.106934,0.503418,0.1245117,-0.4726563
942,10.9375,29.8125,-17.6875,-0.02001953,-0.3295898,1.102539,0.503418,0.1245117,-0.4726563
943,14.1875,29.1875,-22.8125,-0.02001953,-0.3105469,1.173828,0.5141602,0.1376953,-0.4755859
944,16.9375,26.6875,-24.9375,-0.1074219,-0.3452148,1.169922,0.5112305,0.1298828,-0.4780273
945,20.375,24.75,-28.9375,-0.1235352,-0.3295898,1.217285,0.5112305,0.1298828,-0.4780273
946,23.0625,24.75,-35.3125,-0.09960938,-0.2949219,1.166016,0.5141602,0.1298828,-0.4755859
947,16.9375,20.5,-45.8125,-0.09130859,-0.2871094,1.150391,0.5141602,0.1298828,-0.4755859
948,9.5,19.125,-54.5,-0.1274414,-0.2563477,1.169922,0.5087891,0.1196289,-0.4780273
949,3.5,15.5625,-54.625,-0.1591797,-0.2250977,1.197754,0.5166016,0.1323242,-0.4755859
950,1.5,9.8125,-47.1875,-0.2109375,-0.2675781,1.169922,0.5166016,0.1323242,-0.4755859
951,1.1875,5.1875,-31.875,-0.1870117,-0.2138672,1.169922,0.5004883,0.1245117,-0.4780273
952,5.75,0.625,-26.3125,-0.1591797,-0.2099609,1.146484,0.5004883,0.1245117,-0.4780273
953,5.3125,-4.625,-26.25,-0.06347656,-0.175293,1.150391,0.5087891,0.1274414,-0.480957
954,9.5625,-11.5,-32.3125,-0.08349609,-0.2714844,1.102539,0.5087891,0.1196289,-0.4755859
955,19,-16.5,-38.25,-0.07177734,-0.2988281,1.126465,0.5087891,0.1196289,-0.4755859
956,32.0625,-22.5625,-43.875,-0.06787109,-0.3139648,1.130371,0.4926758,0.1298828,-0.4858398
957,30.1875,-25.1875,-46,-0.1274414,-0.4301758,1.059082,0.4951172,0.1298828,-0.480957
959,25.0625,-20.8125,-37.75,-0.175293,-0.4765625,1.071289,0.4951172,0.1298828,-0.480957
960,25.5625,-18.125,-20.5625,-0.05957031,-0.2792969,1.14209,0.4951172,0.1220703,-0.4833984
961,24.625,-16.75,-21.5625,0.003417969,-0.1479492,1.102539,0.4951172,0.1220703,-0.4833984
962,17.8125,-16.75,-26,-0.02001953,-0.1557617,1.071289,0.484375,0.1245117,-0.4941406
963,10.4375,-14.3125,-24.375,0,-0.2329102,1.075195,0.4873047,0.1274414,-0.4858398
964,7.25,-14,-21.625,0.01953125,-0.1713867,1.083008,0.4873047,0.1274414,-0.4858398
965,8,-13.5625,-18.875,0.03125,-0.2792969,1.086914,0.4741211,0.1245117,-0.4887695
966,6.75,-12.9375,-19.125,0.08691406,-0.2485352,1.059082,0.4741211,0.1245117,-0.4887695
967,6.1875,-11.875,-25.3125,0.04736328,-0.2290039,1.083008,0.4765625,0.1274414,-0.4858398
968,-0.4375,-11.8125,-32.1875,0.0234375,-0.144043,1.05127,0.4765625,0.1274414,-0.4858398
969,-10.1875,-9.75,-39.8125,0.03125,-0.1362305,1.075195,0.4765625,0.1274414,-0.4858398
970,-17.25,-7.4375,-33.25,0.007324219,-0.1210938,1.023926,0.46875,0.1298828,-0.4887695
971,-22.375,-4.875,-21.5,0.06738281,-0.1401367,1.039551,0.46875,0.1298828,-0.4887695
972,-22.125,-2.1875,-16.6875,0.1308594,-0.1635742,1.003906,0.46875,0.1298828,-0.4887695
973,-21.5625,0.3125,-18.1875,0.09912109,-0.2446289,1.059082,0.46875,0.1450195,-0.4833984
974,-14.6875,2.6875,-16.875,0.09912109,-0.2524414,1.075195,0.46875,0.1450195,-0.4833984
975,-4.0625,5.8125,-14.8125,0.07128906,-0.3178711,1.114746,0.4633789,0.1450195,-0.4887695
976,1.3125,6.25,-11.875,0.015625,-0.3139648,1.094727,0.4580078,0.1425781,-0.4941406
977,7.6875,7.6875,-12.6875,-0.03173828,-0.3642578,1.122559,0.4580078,0.1425781,-0.4941406
978,16.9375,7.25,-14.0625,-0.01611328,-0.3139648,1.154297,0.4711914,0.1323242,-0.4941406
979,23.875,8.0625,-15.3125,0.03125,-0.2714844,1.158203,0.4711914,0.1323242,-0.4941406
980,29.25,7.5625,-18.375,0.01953125,-0.2910156,1.154297,0.4580078,0.1274414,-0.4858398
981,31.1875,7,-19.875,-0.02392578,-0.2524414,1.138184,0.4604492,0.1298828,-0.496582
982,29.25,9.75,-21.5625,0,-0.1826172,1.106934,0.4604492,0.1298828,-0.496582
983,26.5,10.875,-22.125,0.01123047,-0.1943359,1.134277,0.4633789,0.1323242,-0.4941406
984,23.625,8.6875,-21.5,-0.02783203,-0.1713867,1.122559,0.4633789,0.1323242,-0.4941406
985,20.5,6.75,-20.375,-0.06347656,-0.1635742,1.193848,0.4658203,0.1347656,-0.496582
986,14.9375,5.875,-19.5,-0.09130859,-0.1865234,1.169922,0.46875,0.1245117,-0.4990234
987,10.9375,1.25,-17.1875,-0.1430664,-0.1674805,1.126465,0.46875,0.1245117,-0.4990234
988,11.0625,-3.375,-9.6875,-0.1630859,-0.2177734,1.11084,0.4604492,0.1323242,-0.5019531
989,11.1875,-5.375,-4.1875,-0.1430664,-0.2060547,1.106934,0.4526367,0.1220703,-0.496582
990,10.75,-7.5625,-2.125,-0.07177734,-0.2021484,1.067383,0.4526367,0.1220703,-0.496582
991,9.6875,-6.4375,-1.125,-0.02783203,-0.1713867,1.09082,0.4604492,0.1323242,-0.5019531
992,10.6875,-6.5625,0,-0.05957031,-0.1904297,1.122559,0.4604492,0.1323242,-0.5019531
993,11.5,-8.375,3.5625,-0.08349609,-0.1713867,1.094727,0.4550781,0.1196289,-0.4912109
994,11.1875,-9.5,9.75,-0.1074219,-0.2290039,1.11084,0.449707,0.1298828,-0.5097656
995,12.125,-10.1875,14.3125,-0.09570313,-0.2021484,1.063477,0.449707,0.1298828,-0.5097656
996,11.375,-10.0625,15.25,-0.05175781,-0.1328125,1.067383,0.4526367,0.1171875,-0.5097656
997,11.3125,-12.4375,16.5625,-0.07177734,-0.125,1.019531,0.4526367,0.1171875,-0.5097656
998,12.625,-14.25,20.375,-0.06787109,-0.1401367,1.011719,0.4472656,0.1196289,-0.5097656
999,14.9375,-14.5,24.25,-0.06347656,-0.1943359,1.055176,0.449707,0.1171875,-0.5019531
1000,16.6875,-17.375,23.5625,-0.05566406,-0.03222656,1.023926,0.449707,0.1171875,-0.5019531
1001,16.75,-12.3125,21,-0.05566406,-0.1518555,1.067383,0.4472656,0.1142578,-0.5097656
1002,17.875,-13.3125,26.875,-0.02392578,-0.1635742,1.083008,0.4633789,0.1118164,-0.5175781
1003,17.75,-8.9375,32.6875,-0.04394531,-0.1865234,1.059082,0.4633789,0.1118164,-0.5175781
1004,16.25,-6,33.75,0.01123047,-0.1826172,1.067383,0.4604492,0.1118164,-0.5073242
1005,13.625,-3.1875,35.375,-0.05957031,-0.1904297,1.067383,0.4604492,0.1118164,-0.5073242
1006,10.5625,-0.0625,38.75,-0.01611328,-0.1171875,1.071289,0.4604492,0.1118164,-0.5073242
1007,11,1.8125,32.3125,-0.07177734,-0.1674805,1.102539,0.4604492,0.109375,-0.5151367
1008,9.8125,4.5,48.125,-0.04394531,-0.2602539,1.11084,0.4604492,0.109375,-0.5151367
1009,9,9.0625,70.3125,0.07910156,-0.2290039,1.075195,0.4633789,0.1069336,-0.4990234
1010,14,6.75,61.5625,0.06298828,-0.1132813,1.071289,0.4633789,0.1069336,-0.4990234
1011,17.1875,10.3125,45.3125,0.015625,-0.1401367,1.031738,0.4765625,0.1069336,-0.5043945
1012,19.5,12.8125,32.375,-0.07958984,-0.2368164,1.11084,0.4819336,0.1015625,-0.5097656
1013,19.25,13.125,36.375,-0.09570313,-0.2250977,1.086914,0.4819336,0.1015625,-0.5097656
1014,20.0625,13.625,23,-0.1430664,-0.04736328,1.130371,0.484375,0.09375,-0.512207
1015,21.3125,13.9375,27.75,-0.1352539,-0.2832031,1.063477,0.484375,0.09375,-0.512207
1016,19.375,16.1875,23.75,-0.08740234,-0.1015625,1.098633,0.4794922,0.08642578,-0.512207
1017,17.25,18.875,15.9375,-0.02783203,-0.04394531,1.079102,0.4819336,0.09130859,-0.5200195
1018,15.0625,23.6875,13.75,-0.03564453,-0.1171875,1.114746,0.4819336,0.09130859,-0.5200195
1019,12.625,29.25,11.25,-0.06347656,-0.1557617,1.154297,0.484375,0.08349609,-0.5151367
1020,9.8125,35,23.5,-0.04003906,-0.3178711,1.225098,0.4873047,0.07373047,-0.5151367
1021,8.5625,39.6875,33.125,0,-0.2714844,1.205566,0.4873047,0.07373047,-0.5151367
1022,11.125,39.25,23.6875,-0.01171875,-0.2290039,1.169922,0.5004883,0.08105469,-0.5175781
1024,12.9375,41.625,6.375,-0.1196289,-0.1982422,1.20166,0.5004883,0.08105469,-0.5175781
1025,11.5,41.75,-5.6875,-0.1713867,-0.1674805,1.158203,0.4926758,0.08105469,-0.5200195
1026,11.4375,41.625,-14.1875,-0.2509766,-0.2060547,1.205566,0.5058594,0.08349609,-0.5043945
1027,11,39,-17.9375,-0.2548828,-0.1635742,1.20166,0.5058594,0.08349609,-0.5043945
1028,9,36.125,-21.375,-0.2070313,-0.1518555,1.177734,0.5112305,0.07861328,-0.5073242
1029,2,36.5625,-24,-0.1791992,-0.1015625,1.197754,0.5112305,0.07861328,-0.5073242
1030,-5.4375,37.6875,-23.25,-0.190918,-0.1557617,1.197754,0.5244141,0.07861328,-0.512207
1031,-12.125,36.75,-22.25,-0.21875,-0.1362305,1.229492,0.5195313,0.07861328,-0.4990234
1032,-14.125,33.9375,-20.625,-0.246582,-0.08251953,1.217285,0.5195313,0.07861328,-0.4990234
1033,-15.9375,32.0625,-22.1875,-0.2348633,-0.07861328,1.205566,0.5166016,0.08886719,-0.5043945
1034,-15.625,32.125,-20.125,-0.3183594,-0.1865234,1.14209,0.5195313,0.07861328,-0.4990234
1035,-14.4375,31.375,-18.5625,-0.3027344,-0.2290039,1.217285,0.5195313,0.07861328,-0.4990234
1036,-13.5625,28.4375,-21.0625,-0.2905273,-0.2216797,1.166016,0.5166016,0.08349609,-0.4990234
1037,-10.4375,23.875,-30.5625,-0.2666016,-0.2250977,1.20166,0.5166016,0.08349609,-0.4990234
1038,-3.75,24.4375,-28.875,-0.2387695,-0.2602539,1.162109,0.5195313,0.09375,-0.5019531
1039,2.25,19.4375,-32,-0.1831055,-0.1713867,1.173828,0.5219727,0.09667969,-0.4887695
1040,8.625,20.75,-34.875,-0.175293,-0.2216797,1.213379,0.5219727,0.09667969,-0.4887695
1041,14.75,22.25,-34.3125,-0.1791992,-0.2871094,1.249023,0.5141602,0.08886719,-0.4941406
1042,17.6875,26,-33.375,-0.1235352,-0.2753906,1.241211,0.5141602,0.08886719,-0.4941406
1043,19.6875,27.9375,-38.875,-0.08349609,-0.2446289,1.213379,0.5195313,0.09667969,-0.5019531
1044,16.5,29.3125,-47.75,-0.1313477,-0.2524414,1.225098,0.5195313,0.09667969,-0.5019531
1045,12.1875,29.75,-52.125,-0.1791992,-0.2407227,1.229492,0.5195313,0.09667969,-0.5019531
1046,6.875,30.625,-54.625,-0.1992188,-0.2407227,1.181641,0.5166016,0.08886719,-0.4858398
1047,4.5625,30.25,-56.5,-0.1669922,-0.1826172,1.185547,0.5166016,0.08886719,-0.4858398
1048,2.875,26.8125,-58.8125,-0.1713867,-0.2060547,1.138184,0.5141602,0.08886719,-0.5019531
1049,3.625,25.375,-58,-0.1113281,-0.175293,1.118652,0.5195313,0.09667969,-0.4941406
1050,3.8125,24.5625,-59.4375,-0.07177734,-0.1518555,1.114746,0.5195313,0.09667969,-0.4941406
1051,5.25,19.4375,-61.75,-0.09960938,-0.2021484,1.086914,0.5195313,0.1118164,-0.4941406
1052,1.3125,9.125,-69,-0.08349609,-0.1674805,1.09082,0.5219727,0.1040039,-0.4858398
1053,-1.625,6.1875,-73.3125,-0.1035156,-0.125,1.122559,0.5219727,0.1040039,-0.4858398
1054,-4.4375,1.6875,-77.625,-0.1313477,-0.09765625,1.138184,0.5166016,0.09667969,-0.4990234
1055,-6.9375,-1.125,-77.5,-0.1948242,-0.07080078,1.122559,0.5166016,0.09667969,-0.4990234
1056,-8.75,-2.9375,-73.1875,-0.203125,-0.07080078,1.150391,0.5112305,0.1171875,-0.4941406
1057,-7.5,-7.25,-70.25,-0.190918,-0.09765625,1.177734,0.503418,0.1142578,-0.496582
1058,-4,-8,-67.1875,-0.1992188,-0.07861328,1.154297,0.503418,0.1142578,-0.496582
1059,-1.5625,-9.6875,-66.25,-0.1791992,-0.144043,1.181641,0.4897461,0.1245117,-0.4912109
1060,3.875,-13.1875,-63.625,-0.2109375,-0.1132813,1.146484,0.4897461,0.1245117,-0.4912109
1061,8.0625,-16.75,-61.375,-0.21875,-0.1210938,1.134277,0.4926758,0.1196289,-0.496582
1062,13.375,-22.5625,-58.0625,-0.2148438,-0.06689453,1.102539,0.4873047,0.1220703,-0.4887695
1063,19.0625,-29.5,-55.125,-0.203125,-0.05126953,1.075195,0.4873047,0.1220703,-0.4887695
1064,24.8125,-38.125,-54.3125,-0.1235352,-0.0009765625,1.015625,0.4794922,0.1220703,-0.4912109
1065,29.8125,-46.75,-53.5625,-0.1313477,0.02929688,0.9921875,0.4658203,0.1196289,-0.5019531
1066,34.5625,-52.5,-50.375,-0.05566406,0.005859375,1.035645,0.4658203,0.1196289,-0.5019531
1067,38.5,-56.4375,-46.5,-0.03173828,0.009765625,1.039551,0.4604492,0.1171875,-0.5073242
1068,40.125,-62.0625,-42.625,-0.01171875,-0.04394531,1.055176,0.4604492,0.1171875,-0.5073242
1069,41.125,-65.0625,-38.875,-0.01171875,-0.04394531,1.071289,0.4550781,0.1171875,-0.5151367
1070,42.5625,-68.6875,-35.125,0.007324219,-0.08251953,1.075195,0.4418945,0.1118164,-0.512207
1071,42.5625,-70.8125,-32.8125,0.03515625,-0.05908203,1.083008,0.4418945,0.1118164,-0.512207
1072,41.1875,-72.1875,-31.8125,0.05517578,-0.04394531,1.083008,0.4233398,0.1142578,-0.5175781
1073,41.5625,-73.9375,-31.6875,0.08691406,-0.04736328,1.067383,0.4233398,0.1142578,-0.5175781
1074,42.875,-76.25,-30.375,0.04345703,-0.05908203,1.098633,0.4179688,0.1015625,-0.5229492
1075,44.5,-76.9375,-31,0.04736328,-0.04394531,1.071289,0.4125977,0.09912109,-0.5415039
1076,42.9375,-74.0625,-31.375,0.1030273,-0.09765625,1.09082,0.4125977,0.09912109,-0.5415039
1077,36.375,-71.0625,-33.8125,0.1069336,-0.06298828,1.071289,0.3964844,0.09667969,-0.5361328
1078,29.875,-69.4375,-36.5,0.08691406,-0.04736328,1.059082,0.3964844,0.09912109,-0.5283203
1079,22.5625,-64.0625,-37.625,0.09082031,0.02929688,1.035645,0.3964844,0.09912109,-0.5283203
1080,15.8125,-61.25,-37.1875,0.06298828,0.07958984,1.023926,0.3779297,0.08105469,-0.5385742
1081,7.625,-59,-36.875,0.1030273,0.06005859,1.031738,0.3779297,0.08105469,-0.5385742
1082,0.9375,-58.1875,-36.5625,0.1108398,0.1025391,1.106934,0.3779297,0.08105469,-0.5385742
1083,-2.0625,-58,-34.5625,0.1147461,0.06005859,1.134277,0.3486328,0.09375,-0.5253906
1084,-2.3125,-57.875,-30,0.07128906,0.001953125,1.126465,0.3486328,0.09375,-0.5253906
1085,-0.4375,-57.1875,-27.4375,0.1191406,-0.02050781,1.14209,0.3540039,0.08349609,-0.5385742
1086,-1,-53.6875,-28.8125,0.1469727,-0.02832031,1.20166,0.3540039,0.08349609,-0.5385742
1087,2.5,-50.1875,-29,0.1508789,-0.03222656,1.193848,0.3432617,0.08886719,-0.5283203
1089,4.375,-46.1875,-27.4375,0.1508789,0.001953125,1.130371,0.3349609,0.09375,-0.5385742
1090,0.125,-43,-24.5625,0.09521484,0.02539063,1.114746,0.3349609,0.09375,-0.5385742
1091,-5.875,-39.8125,-20.4375,0.1030273,0.04443359,1.126465,0.3242188,0.08642578,-0.5361328
1092,-12,-36.5625,-17.8125,0.1308594,0.1181641,1.059082,0.3242188,0.08642578,-0.5361328
1093,-14.3125,-35.6875,-15.1875,0.1787109,0.1181641,1.059082,0.3164063,0.08886719,-0.5439453
1094,-13.375,-34.625,-9.8125,0.2421875,0.07177734,1.098633,0.3139648,0.1015625,-0.5361328
1095,-16,-32.375,-3.25,0.2504883,0.04833984,1.067383,0.3139648,0.1015625,-0.5361328
1096,-14.5,-33.875,2.4375,0.2583008,0.009765625,1.075195,0.3085938,0.09912109,-0.5332031
1097,-10.75,-34.125,6.8125,0.2783203,-0.07080078,1.059082,0.3139648,0.08642578,-0.5307617
1098,-5.25,-34.0625,10,0.3100586,-0.1362305,1.027832,0.3139648,0.08642578,-0.5307617
1099,-0.625,-32.625,11.4375,0.2861328,-0.1518555,1.027832,0.3085938,0.09130859,-0.5439453
1100,1.3125,-31,13.4375,0.262207,-0.1787109,0.9604492,0.3085938,0.09130859,-0.5439453
1101,4.8125,-28.25,15.625,0.2460938,-0.1401367,0.9921875,0.3056641,0.09375,-0.5332031
1102,9.9375,-25.3125,17.3125,0.2382813,-0.1362305,0.9604492,0.300293,0.09667969,-0.5332031
1103,13.6875,-22.375,18.125,0.2583008,-0.09765625,1.003906,0.300293,0.09667969,-0.5332031
1104,16.25,-17.4375,19.9375,0.2861328,-0.09765625,0.9760742,0.3032227,0.08886719,-0.5307617
1105,14.25,-12.625,22,0.2978516,-0.1132813,1.011719,0.3032227,0.08886719,-0.5307617
1106,14.1875,-5.4375,22.125,0.3100586,-0.1171875,1.039551,0.300293,0.09130859,-0.5361328
1107,7.375,0.1875,20.4375,0.2900391,-0.09765625,1.047363,0.2978516,0.08105469,-0.5283203
1108,0.125,5.5625,21.5,0.2026367,-0.1362305,1.015625,0.2978516,0.08105469,-0.5283203
1109,-6.6875,8.625,23.375,0.1625977,-0.1289063,1.075195,0.3032227,0.09912109,-0.5361328
1110,-12.4375,12.25,24.9375,0.1425781,-0.1015625,1.063477,0.3056641,0.08349609,-0.5283203
1111,-16.6875,13.9375,25.75,0.1069336,-0.125,1.027832,0.3056641,0.08349609,-0.5283203
1112,-16.75,15.75,27.8125,0.09082031,-0.175293,1.071289,0.3085938,0.09667969,-0.5415039
1113,-17.875,18.8125,28.0625,0.06298828,-0.1787109,1.14209,0.3085938,0.09667969,-0.5415039
1114,-14.8125,18.5,26.875,0.02734375,-0.1865234,1.150391,0.3110352,0.1069336,-0.5307617
1115,-11.125,16.75,24.3125,0.04736328,-0.1479492,1.193848,0.3164063,0.09375,-0.5253906
1116,-7.9375,13.6875,21.5,0.015625,-0.1401367,1.158203,0.3164063,0.09375,-0.5253906
1117,-5.6875,8.9375,20.875,0.003417969,-0.1328125,1.169922,0.3271484,0.1069336,-0.5283203
1118,-4,4,20.9375,0.003417969,-0.175293,1.118652,0.3271484,0.1069336,-0.5283203
1119,-2.3125,-1.6875,21.375,-0.00390625,-0.1635742,1.094727,0.3164063,0.08886719,-0.5385742
1120,2.25,-8.3125,23.625,-0.01611328,-0.2250977,1.071289,0.3164063,0.08886719,-0.5385742
1121,8,-15.3125,25.625,-0.04394531,-0.2250977,1.063477,0.3164063,0.08886719,-0.5385742
1122,12.375,-21.25,23.75,0.03125,-0.2250977,1.007813,0.3139648,0.09667969,-0.5385742
1123,17.5625,-25.375,24.1875,0.04736328,-0.2216797,1.003906,0.3139648,0.09667969,-0.5385742
1124,21.5625,-28.1875,25.5625,0.1230469,-0.2290039,1.007813,0.3242188,0.09912109,-0.5307617
1125,25,-27.6875,25.5,0.1704102,-0.2177734,1.011719,0.3164063,0.08642578,-0.5253906
1126,26.25,-24.375,26.875,0.2739258,-0.175293,1.027832,0.3164063,0.08642578,-0.5253906
1127,25.125,-17.5625,26.75,0.2939453,-0.1171875,1.043457,0.3139648,0.09375,-0.5463867
1128,18.6875,-10.9375,25.6875,0.2978516,-0.1054688,1.122559,0.3188477,0.09667969,-0.5415039
1129,16.8125,-2.8125,30.25,0.2978516,-0.1787109,1.118652,0.3188477,0.09667969,-0.5415039
1130,13.875,2.1875,39.25,0.2900391,-0.2446289,1.150391,0.3164063,0.09375,-0.5283203
1131,5.3125,5.1875,39.5625,0.2421875,-0.1401367,1.134277,0.3164063,0.09375,-0.5283203
1132,8.125,0.5625,24.625,0.1826172,-0.1904297,1.162109,0.3164063,0.08105469,-0.5385742
1133,6.1875,-1.0625,18.3125,0.1586914,-0.2216797,1.173828,0.3242188,0.07861328,-0.5415039
1134,6.0625,-5.5,11.75,0.2504883,-0.1518555,1.14209,0.3242188,0.07861328,-0.5415039
1135,4.625,-8.0625,0.8125,0.3061523,-0.109375,1.11084,0.3164063,0.08349609,-0.5307617
1136,-1.875,-6.875,-9.3125,0.3139648,-0.03222656,1.071289,0.3164063,0.08349609,-0.5307617
1137,-14.625,-4.4375,-20.125,0.2783203,-0.02050781,1.059082,0.3139648,0.08349609,-0.5385742
1138,-24.4375,-2.1875,-25.75,0.222168,0.005859375,1.071289,0.3164063,0.08886719,-0.5439453
1139,-34.875,0.9375,-24.375,0.1904297,-0.01660156,1.114746,0.3164063,0.08886719,-0.5439453
1140,-42.25,0.4375,-21.9375,0.1943359,-0.02050781,1.138184,0.3188477,0.08105469,-0.5332031
1141,-52.3125,-1.625,-16.8125,0.1787109,-0.004882813,1.138184,0.3242188,0.08886719,-0.5253906
1142,-60.6875,-3.1875,-15.75,0.1508789,-0.01660156,1.114746,0.3242188,0.08886719,-0.5253906
1143,-65.8125,3.25,-12.6875,0.2583008,-0.03222656,1.158203,0.3139648,0.1069336,-0.5229492
1144,-54.625,14.8125,-9,0.3139648,-0.1054688,1.146484,0.3139648,0.1069336,-0.5229492
1145,-44.3125,16.125,8.3125,0.1943359,-0.2216797,1.169922,0.3110352,0.1142578,-0.5200195
1146,-35.9375,11.0625,22.5,0.1069336,-0.1635742,1.150391,0.3188477,0.1196289,-0.5200195
1147,-30.9375,8.4375,24.125,0.1269531,-0.2753906,1.256836,0.3188477,0.1196289,-0.5200195
1148,-10.1875,-5.5625,25.875,-0.02783203,-0.1904297,1.055176,0.3139648,0.1196289,-0.5253906
1149,29.125,-6,72.75,-0.08349609,-0.6000977,1.173828,0.3139648,0.1196289,-0.5253906
1150,-0.125,-15.6875,45.625,0.06298828,0.05615234,1.193848,0.3242188,0.1171875,-0.5253906
1151,21.875,-18.375,24,0.05908203,-0.2602539,1.197754,0.3217773,0.1274414,-0.5307617
1152,27.75,-24.6875,38.75,0.1069336,-0.2714844,1.169922,0.3217773,0.1274414,-0.5307617
1154,43.5,-24.9375,42.0625,0.1787109,-0.3139648,1.173828,0.3242188,0.1171875,-0.5229492
1155,51.9375,-29.125,45,0.1069336,-0.3491211,1.14209,0.3242188,0.1118164,-0.5307617
1156,70.6875,-27.0625,67.375,0.1030273,-1.11377,0.3793945,0.3242188,0.1118164,-0.5307617
1157,108.5625,-22.5,83.3125,0.3417969,-0.3452148,1.154297,0.3295898,0.1069336,-0.5385742
1158,69.625,-21.25,28.3125,0.644043,0.1723633,1.063477,0.3295898,0.1069336,-0.5385742
1159,46.1875,-20,-5.8125,0.2939453,0.1103516,1.023926,0.3295898,0.1069336,-0.5385742
1160,0,-17,14.0625,0.04736328,0.2958984,0.984375,0.3188477,0.07861328,-0.5332031
1161,-27.4375,-12.9375,28.0625,0.1865234,0.3383789,0.972168,0.3188477,0.07861328,-0.5332031
1162,-45.5,-10.4375,31.125,0.3339844,0.06396484,1.059082,0.3325195,0.08349609,-0.5385742
1163,-51.5625,-4.9375,23.25,0.3974609,-0.1943359,1.079102,0.3325195,0.08349609,-0.5385742
1164,-48.375,-4.375,11.9375,0.3417969,-0.3374023,1.122559,0.3242188,0.08642578,-0.5361328
1165,-39.4375,-6.1875,-1.125,0.2026367,-0.3413086,1.162109,0.3217773,0.1015625,-0.5385742
1166,-24.5625,-9.875,-10.8125,0.1469727,-0.3413086,1.169922,0.3217773,0.1015625,-0.5385742
1167,-6.125,-9.1875,-13.875,0.1308594,-0.46875,1.249023,0.3188477,0.09912109,-0.5361328
1168,10.5625,-11.375,-8.3125,0.07910156,-0.4106445,1.185547,0.3188477,0.09912109,-0.5361328
1169,34.4375,-12.4375,-7.4375,0.1826172,-0.3413086,1.221191,0.3242188,0.1040039,-0.5307617
1170,51.6875,-15.25,-4.4375,0.2421875,-0.484375,1.158203,0.3217773,0.1015625,-0.5332031
1171,87.6875,-14.3125,29.25,0.4213867,-0.6157227,1.079102,0.3217773,0.1015625,-0.5332031
1172,108.75,-20.9375,39.5,0.5170898,-0.3798828,0.9960938,0.3139648,0.09912109,-0.5385742
1173,107,-13.8125,15.4375,0.4970703,-0.1904297,1.047363,0.3139648,0.07861328,-0.5415039
1174,115.0625,-8.0625,-8.9375,0.4213867,0.009765625,1,0.3139648,0.07861328,-0.5415039
1175,110.75,-7.8125,-11.5625,0.3496094,0.1064453,1.039551,0.3139648,0.06591797,-0.5546875
1176,92.6875,-8.5625,-13.3125,0.2583008,0.2260742,1,0.3139648,0.06591797,-0.5546875
1177,64.8125,-4,-11.1875,0.3300781,0.3613281,1.130371,0.3056641,0.06835938,-0.5595703
1178,38.375,-2.6875,-11.8125,0.2661133,0.4194336,1.166016,0.3188477,0.04541016,-0.5625
1179,22,-2.0625,-11.5625,0.1347656,0.3925781,1.158203,0.3188477,0.04541016,-0.5625
1180,16.375,-4.75,-12.3125,0.03125,0.3422852,1.205566,0.3110352,0.04541016,-0.5595703
1181,4.25,-4.375,-11.6875,0.1191406,0.2416992,1.173828,0.3110352,0.04541016,-0.5595703
1182,2.375,-3.5,-11.1875,0.2104492,0.1259766,1.106934,0.3139648,0.05566406,-0.5595703
1183,-0.4375,-2.3125,-10.0625,0.2543945,0.03320313,1.059082,0.3110352,0.04003906,-0.5595703
1184,-2.75,1.8125,-11.6875,0.3061523,0.02148438,1.015625,0.3110352,0.04003906,-0.5595703
1185,-6.8125,6.3125,-18.25,0.3696289,0.05224609,1.039551,0.3164063,0.04785156,-0.5595703
1186,-12.3125,13.625,-22.1875,0.3618164,0.1333008,0.9643555,0.3110352,0.04003906,-0.5546875
1187,-14.1875,19.5625,-22.0625,0.3818359,0.1723633,0.984375,0.3110352,0.04003906,-0.5546875
1188,-15.5625,23.3125,-18.375,0.2861328,0.1645508,1.003906,0.3139648,0.04541016,-0.5571289
1189,-15.4375,29.1875,-11.5625,0.3417969,0.168457,1.019531,0.3139648,0.04541016,-0.5571289
1190,-20.4375,35.1875,-13.0625,0.3017578,0.237793,1,0.3085938,0.03759766,-0.5625
1191,-28.5625,34.375,-23.8125,0.3618164,0.2841797,1,0.3139648,0.05029297,-0.5595703
1192,-40.625,38.625,-20.875,0.453125,0.1606445,1.166016,0.3139648,0.05029297,-0.5595703
1193,-42.3125,39.375,-8.5625,0.5527344,0.08349609,1.169922,0.3164063,0.04541016,-0.5546875
1194,-37.375,54.9375,14.375,0.425293,-0.008789063,1.130371,0.3164063,0.04541016,-0.5546875
1195,-34.875,55.1875,23,0.4052734,0.1220703,1.114746,0.340332,0.07080078,-0.5595703
1196,-27.625,59.125,14.1875,0.3735352,0.1064453,1.086914,0.340332,0.07080078,-0.5595703
1197,-24.625,71.3125,-1.25,0.2822266,0.1450195,1.154297,0.340332,0.07080078,-0.5595703
1198,-16.8125,75.6875,-8.5625,0.1586914,-0.01269531,1.14209,0.3432617,0.07080078,-0.5571289
1199,-9.6875,82.625,-13.875,0.1191406,0.05615234,1.169922,0.3432617,0.07080078,-0.5571289
1200,-4.25,83.25,-20.875,-0.07958984,-0.01269531,1.071289,0.3432617,0.07080078,-0.5571289
1201,0.4375,77.6875,-9.8125,-0.1074219,-0.05126953,1.055176,0.3588867,0.07373047,-0.5415039
1202,-8.25,72.1875,2.5625,-0.1591797,-0.06689453,1.023926,0.3588867,0.07373047,-0.5415039
1203,-11.625,62.75,22.75,-0.190918,-0.1557617,1.043457,0.3696289,0.06591797,-0.5571289
1204,-13.4375,55.8125,41.3125,-0.1831055,-0.05517578,1.075195,0.3779297,0.06835938,-0.5463867
1205,-16.8125,51.4375,51.4375,-0.1152344,-0.01660156,1.118652,0.3779297,0.06835938,-0.5463867
1206,-21.8125,44.4375,55.125,-0.1113281,-0.03613281,1.14209,0.3911133,0.07861328,-0.5546875
1207,-21.625,39.625,57.6875,-0.1235352,-0.04394531,1.173828,0.3911133,0.07861328,-0.5546875
1208,-19.375,34.5,57.9375,-0.1630859,-0.09375,1.114746,0.3994141,0.07373047,-0.5415039
1209,-17,30.4375,56.625,-0.1948242,-0.09765625,1.071289,0.4042969,0.07617188,-0.5493164
1210,-20.9375,21.375,56.4375,-0.1552734,-0.02050781,1.015625,0.4042969,0.07617188,-0.5493164
1211,-26.4375,12.875,54.125,-0.1074219,-0.04736328,1.05127,0.4072266,0.07617188,-0.5415039
1212,-31.6875,16.625,65.0625,-0.04394531,-0.03222656,1.079102,0.4072266,0.07617188,-0.5415039
1213,-41,21.3125,64.875,0.1030273,0.06396484,1.067383,0.409668,0.08105469,-0.5332031
1214,-49,31.625,49.625,0.1308594,0.1259766,1.221191,0.4179688,0.08105469,-0.5385742
1215,-53.375,45.9375,34.5625,0.1943359,0.07958984,1.249023,0.4179688,0.08105469,-0.5385742
1216,-60.9375,53.8125,19.625,0.1191406,-0.04394531,1.351563,0.4311523,0.1015625,-0.5253906
1217,-56.125,60.75,7.25,0.07519531,-0.144043,1.296387,0.434082,0.1015625,-0.5332031
1219,-54.75,57,2.8125,-0.1035156,-0.2524414,1.193848,0.434082,0.1015625,-0.5332031
1220,-52.25,45.9375,-4.6875,-0.2626953,-0.3066406,1.181641,0.4418945,0.1040039,-0.5175781
1221,-47.6875,36.375,-11.4375,-0.3344727,-0.2792969,1.134277,0.4418945,0.1040039,-0.5175781
1222,-46.875,25.625,-9.625,-0.3862305,-0.3256836,1.126465,0.449707,0.09375,-0.5200195
1223,-47.125,19.375,-2.375,-0.2148438,-0.175293,1.122559,0.4418945,0.1118164,-0.512207
1224,-50.4375,13.25,3.1875,-0.02392578,-0.1518555,1.098633,0.4418945,0.1118164,-0.512207
1225,-54.3125,8.3125,10.375,-0.1152344,-0.1982422,1.102539,0.449707,0.1015625,-0.5175781
1226,-54.8125,1.75,17,-0.1474609,-0.2988281,1.11084,0.449707,0.1015625,-0.5175781
1227,-51.625,-2.25,20.1875,-0.203125,-0.3217773,1.094727,0.4550781,0.1171875,-0.512207
1228,-42.75,-3.625,18.75,-0.1474609,-0.2407227,1.094727,0.4526367,0.1298828,-0.512207
1229,-34.5,-2.25,14.9375,-0.1196289,-0.2446289,1.166016,0.4526367,0.1298828,-0.512207
1230,-25.8125,-0.1875,18.0625,-0.02783203,-0.2250977,1.14209,0.4604492,0.1274414,-0.5043945
1231,-20.625,0.625,25.375,0,-0.1787109,1.173828,0.449707,0.1425781,-0.5043945
1232,-12.125,4,32.0625,-0.02001953,-0.2177734,1.169922,0.449707,0.1425781,-0.5043945
1233,-5.625,6.6875,35.0625,0.01953125,-0.2177734,1.20166,0.4526367,0.1347656,-0.5073242
1234,-2.375,2.375,31.6875,-0.04785156,-0.2099609,1.134277,0.4526367,0.1347656,-0.5073242
1235,-0.9375,-2.625,26.6875,-0.06787109,-0.2524414,1.106934,0.4526367,0.1347656,-0.5073242
1236,-2,-7.25,23.6875,-0.1152344,-0.2792969,1.05127,0.4633789,0.1298828,-0.5097656
1237,-7.4375,-12.0625,35.1875,-0.203125,-0.4223633,0.8735352,0.4633789,0.1298828,-0.5097656
1238,-15.9375,-15.5625,37.5625,-0.08740234,-0.125,0.9682617,0.4633789,0.1298828,-0.5097656
1239,-16,-14.5625,40.8125,-0.1474609,-0.159668,0.9487305,0.4633789,0.1298828,-0.5097656
1240,-17.1875,-11.25,60.9375,-0.1035156,-0.175293,0.9882813,0.4633789,0.1220703,-0.512207
1241,-12.625,-3.5,74,0.01123047,-0.1054688,1.011719,0.4633789,0.1274414,-0.4990234
1242,-10.0625,2.875,69.75,0.1308594,-0.125,1.075195,0.4633789,0.1274414,-0.4990234
1243,-6.9375,11,52,0.206543,-0.2446289,1.086914,0.4741211,0.1298828,-0.5073242
1244,-3.1875,16.5,32.1875,0.1748047,-0.3837891,1.162109,0.4741211,0.1298828,-0.5073242
1245,5.25,22.3125,15.375,0.09521484,-0.4453125,1.162109,0.4741211,0.1196289,-0.496582
1246,12.9375,21.375,4.75,0.05517578,-0.3720703,1.14209,0.4819336,0.1274414,-0.5019531
1247,19.9375,25.4375,-11.75,0.007324219,-0.2641602,1.094727,0.4819336,0.1274414,-0.5019531
1248,34.3125,31.3125,-11.875,-0.02783203,-0.3105469,1.197754,0.4794922,0.1171875,-0.5043945
1249,19.1875,22.9375,-8.875,-0.09570313,-0.1904297,1,0.484375,0.1245117,-0.4941406
1250,11.1875,24.0625,-8.9375,-0.07958984,-0.08251953,1.05127,0.484375,0.1245117,-0.4941406
1251,7.25,25.1875,-8.0625,-0.07177734,-0.1713867,1.015625,0.484375,0.1196289,-0.512207
1252,6,25.125,0.25,-0.06347656,-0.2792969,0.9960938,0.484375,0.1196289,-0.512207
1253,2.375,24.5625,2.4375,-0.04394531,-0.2832031,1.047363,0.4926758,0.1196289,-0.5073242
1254,2.75,23.4375,-1.125,-0.05957031,-0.2871094,1.027832,0.4897461,0.1196289,-0.4990234
1255,1.9375,16.875,-0.3125,-0.1791992,-0.3066406,1.055176,0.4897461,0.1196289,-0.4990234
1256,2.5,15.0625,-0.5625,-0.2387695,-0.2485352,1.023926,0.4897461,0.1274414,-0.4941406
1257,11.5,16.375,1.0625,-0.230957,-0.3066406,1.09082,0.4897461,0.1274414,-0.4941406
1258,15.125,14.3125,5.9375,-0.2587891,-0.3334961,1.075195,0.4926758,0.1142578,-0.4941406
1259,16,15.625,6.75,-0.190918,-0.2368164,1.11084,0.4897461,0.1196289,-0.5097656
1260,5.4375,10,7.5625,-0.2548828,-0.418457,0.9604492,0.4897461,0.1196289,-0.5097656
1261,-7,-11.9375,35,-0.2944336,-0.7392578,1.241211,0.4980469,0.1171875,-0.4990234
1262,18.1875,18.5,29.375,-0.03173828,-0.1171875,1.162109,0.5087891,0.1118164,-0.5097656
1263,12,10.5625,-4.8125,-0.08349609,-0.09765625,1.106934,0.5087891,0.1118164,-0.5097656
1264,22.0625,16.75,-2.6875,-0.1831055,-0.2832031,1.272949,0.5058594,0.1069336,-0.4990234
1265,26.8125,19.6875,15,-0.2387695,-0.3876953,1.154297,0.5058594,0.1069336,-0.4990234
1266,35.75,14.9375,29.0625,-0.3066406,-0.402832,1.169922,0.4897461,0.1171875,-0.4990234
1267,31.125,13.8125,21.75,-0.230957,-0.3413086,1.079102,0.5141602,0.109375,-0.5019531
1268,29.125,7.6875,6.5,-0.2548828,-0.3452148,1.047363,0.5141602,0.109375,-0.5019531
1269,30.9375,2.125,-4.375,-0.230957,-0.2910156,1.221191,0.503418,0.1040039,-0.4912109
1270,29.625,5.6875,-14.25,-0.190918,-0.1787109,1.237305,0.503418,0.1040039,-0.4912109
1271,31.25,12.9375,-28.4375,-0.1630859,-0.1210938,1.09082,0.503418,0.1015625,-0.5097656
1272,11.625,5.1875,-27.4375,0.05908203,-0.03222656,1.557129,0.503418,0.1015625,-0.5097656
1273,14.1875,35.4375,-45.375,-0.05566406,0.02539063,1.14209,0.503418,0.1015625,-0.5097656
1274,-2,33.625,-52.9375,-0.1669922,-0.06298828,1.213379,0.5058594,0.09375,-0.5175781
1275,-9,34.875,-43.375,-0.3383789,-0.1401367,1.34375,0.5058594,0.09375,-0.5175781
1276,-13.75,36.0625,-47.9375,-0.2666016,-0.1674805,1.268555,0.5058594,0.09375,-0.5175781
1277,-17.75,28.9375,-54.9375,-0.2705078,-0.1518555,1.284668,0.5195313,0.09667969,-0.5073242
1278,-22.625,23.5625,-58.0625,-0.1630859,-0.144043,1.304199,0.5195313,0.09667969,-0.5073242
1279,-21.625,17.625,-53.3125,-0.3461914,-0.2446289,1.189941,0.503418,0.1196289,-0.4990234
1280,-17.8125,11.25,-43.625,-0.246582,-0.2641602,1.284668,0.5004883,0.1171875,-0.4887695
1281,-16.1875,3.4375,-44.6875,-0.3500977,-0.3413086,1.169922,0.5004883,0.1171875,-0.4887695
1282,-16.5,-3.125,-42.25,-0.230957,-0.2329102,1.197754,0.4951172,0.1171875,-0.5043945
1284,-15.8125,-10.8125,-40,-0.421875,-0.3642578,1.055176,0.4951172,0.1171875,-0.5043945
1285,-10.8125,-13.875,-28.125,-0.2788086,-0.2524414,1.193848,0.5058594,0.1142578,-0.5019531
1286,-4.5,-14.9375,-33.1875,-0.1791992,-0.1826172,1.09082,0.4873047,0.1196289,-0.496582
1287,0.5625,-12.3125,-39.3125,-0.03173828,-0.144043,1.209473,0.4873047,0.1196289,-0.496582
1288,2.5,-8.0625,-49.25,0.03955078,-0.2988281,1.047363,0.4819336,0.1220703,-0.4941406
1289,-0.3125,-3,-61.6875,0.08300781,-0.09375,1.098633,0.4819336,0.1220703,-0.4941406
1290,-2.375,-4.6875,-62.5625,-0.1235352,-0.03613281,1.059082,0.4897461,0.1196289,-0.4941406
1291,-2.0625,-7.6875,-54.4375,-0.2270508,0.05615234,1.075195,0.4873047,0.1245117,-0.4941406
1292,1.3125,-6.625,-48.6875,-0.1630859,0.07568359,1.11084,0.4873047,0.1245117,-0.4941406
1293,-1.375,-9.3125,-42.8125,-0.1196289,-0.1210938,0.9921875,0.4741211,0.1245117,-0.4941406
1294,0.6875,-10.5625,-38.25,0.03955078,-0.1289063,1.094727,0.4765625,0.1274414,-0.5019531
1295,5.1875,-12.25,-47.375,0.06738281,-0.1054688,1.031738,0.4765625,0.1274414,-0.5019531
1296,6.375,-12.875,-57.875,0.09521484,-0.01269531,1.027832,0.4741211,0.1347656,-0.4887695
1297,4.375,-5.8125,-72.375,0.1147461,0.1992188,1.027832,0.4741211,0.1347656,-0.4887695
1298,-0.5,-4.4375,-76.625,-0.1035156,0.137207,0.972168,0.4580078,0.1274414,-0.4887695
1299,28.5625,-35.6875,-64.0625,-0.1113281,-0.01269531,1.36377,0.4526367,0.1347656,-0.4912109
1300,3.1875,9.6875,-52.25,0.3535156,0.2685547,1.011719,0.4526367,0.1347656,-0.4912109
1301,-15,27.9375,-82.1875,0.3579102,0.4389648,0.9604492,0.4443359,0.1245117,-0.496582
1302,-21.0625,21.875,-63.0625,-0.190918,-0.3491211,0.9287109,0.4443359,0.1245117,-0.496582
1303,-27.3125,17.5625,-30.4375,-0.06347656,-0.2446289,1.043457,0.449707,0.1425781,-0.4887695
1304,-30.4375,28.9375,-49,0.1625977,-0.05517578,1,0.4443359,0.1376953,-0.4941406
1305,-15.8125,16.9375,-47.9375,0.04345703,-0.004882813,1.154297,0.4443359,0.1376953,-0.4941406
1306,-6.75,37.875,-46,0.1069336,-0.2446289,1.098633,0.4365234,0.1503906,-0.4887695
1307,7.75,34.0625,-51.5625,0.07519531,-0.3916016,1.162109,0.4443359,0.1376953,-0.4941406
1308,27.625,25.6875,-56.6875,-0.04394531,-0.4301758,1.138184,0.4443359,0.1376953,-0.4941406
1309,44.5,18.625,-52.75,-0.1074219,-0.3681641,1.138184,0.4443359,0.1474609,-0.496582
1310,51,11.4375,-45.875,-0.06787109,-0.1826172,1.11084,0.4443359,0.1474609,-0.496582
1311,49.25,4.75,-39.75,-0.04785156,-0.05126953,1.126465,0.4443359,0.1474609,-0.496582
1312,42.9375,2.5625,-32.9375,-0.00390625,0.02929688,1.05127,0.4418945,0.1376953,-0.4912109
1313,29.6875,6.4375,-28.75,0.03515625,0.009765625,1.11084,0.4418945,0.1376953,-0.4912109
1314,21.9375,7.6875,-27,0.08300781,-0.06298828,1.059082,0.4418945,0.1376953,-0.4912109
1315,12.125,10.5625,-33,0.07519531,-0.1015625,1.067383,0.4418945,0.1376953,-0.4912109
1316,6,15.375,-36.4375,0.09912109,-0.09375,1.09082,0.4365234,0.1425781,-0.5043945
1317,-3.625,20.3125,-32.875,0.04345703,-0.05517578,1.189941,0.4311523,0.1376953,-0.4941406
1318,-12.625,24.375,-26.9375,-0.02001953,-0.1289063,1.225098,0.4311523,0.1376953,-0.4941406
1319,-18.875,30.125,-30.3125,0.003417969,-0.1826172,1.181641,0.4365234,0.1425781,-0.4990234
1320,-14.125,42.6875,-39,0.01953125,-0.3256836,1.229492,0.4365234,0.1425781,-0.4990234
1321,-8.4375,39.75,-33.5,-0.08349609,-0.1518555,1.185547,0.4311523,0.1376953,-0.496582
1322,-5.9375,36.375,-9.125,-0.2148438,0.005859375,1.071289,0.434082,0.1401367,-0.4887695
1323,-13.375,40.875,-7.5625,-0.1196289,-0.06298828,1.284668,0.434082,0.1401367,-0.4887695
1324,-14.5,46.75,-22.125,-0.09570313,-0.2407227,1.217285,0.4394531,0.1425781,-0.4941406
1325,-7.0625,44.625,-29,-0.1474609,-0.2368164,1.221191,0.4365234,0.1376953,-0.4833984
1326,-8.5,40.25,-29.375,-0.175293,-0.2563477,1.304199,0.4365234,0.1376953,-0.4833984
1327,1.125,42.5625,-37,-0.1791992,-0.2949219,1.173828,0.4472656,0.1503906,-0.4833984
1328,6.125,30.4375,-42.9375,-0.1948242,-0.3564453,1.225098,0.4472656,0.1503906,-0.4833984
1329,11.0625,12.5625,-39.4375,-0.2666016,-0.3105469,1.241211,0.4418945,0.1474609,-0.4941406
1330,11.3125,-2.8125,-30.5,-0.246582,-0.2988281,1.25293,0.4443359,0.1376953,-0.4887695
1331,6.875,-13,-21.75,-0.1513672,-0.2021484,1.237305,0.4443359,0.1376953,-0.4887695
1332,3.5,-20.25,-16.75,-0.1352539,-0.1557617,1.241211,0.4365234,0.1425781,-0.4858398
1333,3.9375,-26.4375,-12.5,-0.1430664,-0.1401367,1.284668,0.4365234,0.1425781,-0.4858398
1334,11.1875,-26,-10.625,-0.1430664,-0.1713867,1.316406,0.4365234,0.152832,-0.496582
1335,21.375,-29,-11.0625,-0.08740234,-0.2290039,1.34375,0.4311523,0.1450195,-0.496582
1336,40.5,-34.6875,-25.125,-0.1196289,-0.3139648,1.320313,0.4311523,0.1450195,-0.496582
1337,56.875,-46.9375,-35.5625,-0.2587891,-0.7045898,1.426758,0.4287109,0.1376953,-0.4941406
1338,81.3125,-60.75,-6.0625,-0.1870117,-0.2250977,1.106934,0.4125977,0.1245117,-0.5043945
1339,86.9375,-69.8125,-41.6875,0.0234375,-0.1982422,1.40332,0.4125977,0.1245117,-0.5043945
1340,104.125,-78.75,-47.4375,-0.1513672,-0.2675781,1.280762,0.4042969,0.1245117,-0.5175781
1341,89.5625,-94.1875,-32.5,-0.1992188,-0.02441406,1.335938,0.4042969,0.1245117,-0.5175781
1342,79.625,-93.3125,-24.8125,-0.1152344,0.203125,1.335938,0.3994141,0.1142578,-0.5175781
1343,72.0625,-91.6875,-14.375,-0.04003906,0.3110352,1.245117,0.3886719,0.1069336,-0.5283203
1344,55.5625,-90.125,2.4375,0.03125,0.3110352,1.229492,0.3886719,0.1069336,-0.5283203
1345,40.0625,-87.4375,21.5,0.1191406,0.21875,1.197754,0.3725586,0.09912109,-0.5253906
1346,40.125,-93.25,36.1875,0.1547852,0.09863281,1.20166,0.3725586,0.09912109,-0.5253906
1347,40.75,-99.625,45.625,0.09912109,-0.01269531,1.169922,0.3618164,0.08886719,-0.5283203
1349,32.625,-90.4375,55.5,0.09082031,0.01757813,1.09082,0.3618164,0.08886719,-0.5283203
1350,-103,-25.0625,48.5,0.3857422,0.2998047,0.7075195,0.3618164,0.08886719,-0.5283203
1351,-102.9375,-87.25,24.8125,0.1308594,0.1489258,0.8417969,0.3510742,0.1040039,-0.5361328
1352,24.5,-117.0625,21.875,0.01953125,-0.175293,1.280762,0.3510742,0.1040039,-0.5361328
1353,71.5,-108.1875,49.75,-0.01611328,-0.3217773,1.205566,0.3510742,0.1040039,-0.5361328
1354,36.875,-93.875,85.5,0.1943359,0.1411133,0.8891602,0.3349609,0.1015625,-0.5283203
1355,-6.0625,-84.5625,87.5,0.1586914,0.1298828,1.094727,0.3349609,0.1015625,-0.5283203
1356,-10.0625,-77.875,65.5,0.1787109,-0.05517578,1.122559,0.340332,0.08105469,-0.5283203
1357,-28.75,-69.3125,46.4375,0.1347656,-0.04736328,1.035645,0.3188477,0.08886719,-0.5253906
1358,-28.625,-62,46.9375,0.1469727,-0.09375,1.086914,0.3188477,0.08886719,-0.5253906
1359,-23.8125,-59.9375,57.5,0.1904297,-0.03222656,1.075195,0.3242188,0.1069336,-0.5229492
1360,-32.5,-54.0625,63.0625,0.2583008,0.001953125,1.039551,0.3242188,0.1069336,-0.5229492
1361,-40.8125,-48.3125,60.25,0.2504883,0.02148438,0.9604492,0.3110352,0.1069336,-0.5253906
1362,-56.5,-44.625,58.625,0.262207,0.005859375,0.9960938,0.3139648,0.1015625,-0.5200195
1363,-62.6875,-42.3125,61.6875,0.2304688,-0.08251953,0.9326172,0.3139648,0.1015625,-0.5200195
1364,-53.9375,-43.25,73.375,0.1826172,-0.2792969,1.14209,0.3188477,0.1171875,-0.5229492
1365,142.8125,-82.5625,60,0.05126953,-1.094727,1.296387,0.3188477,0.1171875,-0.5229492
1366,201.5625,-86.5625,50.9375,0.05908203,-0.9130859,1.3125,0.3188477,0.1142578,-0.5229492
1367,278.4375,-97.9375,50.875,0.09912109,-0.5883789,1.173828,0.3139648,0.09375,-0.5385742
1368,312.625,-105.875,53.375,0.2182617,-0.3720703,1.11084,0.3139648,0.09375,-0.5385742
1369,311.9375,-101.5,52,0.2783203,-0.2675781,1.118652,0.2978516,0.05810547,-0.5571289
1370,331.125,-101.0625,51.1875,0.2978516,-0.2485352,1.019531,0.2895508,0.02490234,-0.5649414
1371,341.75,-97.75,51.0625,0.3217773,-0.2368164,0.9365234,0.2895508,0.02490234,-0.5649414
1372,318.8125,-90.125,50.0625,0.3417969,-0.1865234,0.8496094,0.2788086,-0.02050781,-0.5834961
1373,331.75,-81.125,51.3125,0.4291992,-0.0009765625,0.940918,0.2788086,-0.02050781,-0.5834961
1374,350.0625,-85.8125,69,0.3696289,0.1875,0.7470703,0.265625,-0.04882813,-0.5859375
1375,314.1875,-69.5,83.125,0.4375,0.3613281,0.7548828,0.265625,-0.09472656,-0.5991211
1376,247.125,-58.1875,91.4375,0.3774414,0.8793945,0.5732422,0.265625,-0.09472656,-0.5991211
1377,181.625,-44.125,96.4375,0.4692383,0.940918,0.6362305,0.2548828,-0.1308594,-0.6020508
1378,122.3125,-32.5,96.75,0.4291992,0.8754883,0.6362305,0.2548828,-0.1308594,-0.6020508
1379,60.75,-20,98.75,0.4331055,0.7519531,0.628418,0.2441406,-0.1411133,-0.5888672
1380,36,-11.75,99.9375,0.3774414,0.5893555,0.6879883,0.2470703,-0.15625,-0.6069336
1381,12.6875,-3.9375,98.4375,0.3657227,0.4194336,0.7470703,0.2470703,-0.15625,-0.6069336
1382,-4.375,1,98.625,0.3339844,0.3613281,0.8696289,0.2387695,-0.1640625,-0.5991211
1383,-8.875,3.4375,98.125,0.3017578,0.3188477,0.9013672,0.2416992,-0.1513672,-0.59375
1384,-7.6875,7.8125,90.625,0.3339844,0.2109375,0.9365234,0.2416992,-0.1513672,-0.59375
1385,4.4375,5.5625,87.1875,0.2900391,0.04101563,1.043457,0.2387695,-0.1484375,-0.6044922
1386,20.75,2.0625,85.75,0.2861328,0.001953125,1.177734,0.2387695,-0.1484375,-0.6044922
1387,57.25,-3.5,84.9375,0.3535156,-0.05517578,1.284668,0.2387695,-0.1484375,-0.6044922
1388,63.9375,-5.9375,82.8125,0.2543945,-0.008789063,1.221191,0.2470703,-0.15625,-0.6020508
1389,83.0625,-11.6875,73.1875,0.2143555,-0.07080078,1.20166,0.2470703,-0.15625,-0.6020508
1390,105.375,-18.0625,68.6875,0.2861328,-0.109375,1.20166,0.2470703,-0.15625,-0.6020508
1391,126.1875,-22.0625,66.875,0.3535156,0.06787109,1.102539,0.2470703,-0.15625,-0.6020508
1392,132.9375,-20.8125,60.75,0.3935547,0.1606445,0.9760742,0.2441406,-0.1870117,-0.5859375
1393,124.0625,-18.4375,57.5,0.4331055,0.152832,1.007813,0.2495117,-0.1948242,-0.5991211
1394,117.0625,-18.125,58,0.4013672,0.2880859,0.9448242,0.2495117,-0.1948242,-0.5991211
1395,98.625,-12.9375,56.8125,0.3896484,0.4077148,0.8417969,0.230957,-0.2099609,-0.5913086
1396,100.1875,-12.125,52.5,0.409668,0.4462891,0.8061523,0.230957,-0.2099609,-0.5913086
1397,71.25,-8.625,45.5625,0.3696289,0.4541016,0.8100586,0.2363281,-0.2124023,-0.5966797
1398,61.5625,-8.75,38.125,0.3696289,0.4194336,0.8222656,0.2338867,-0.2250977,-0.59375
1399,48.75,-6.9375,34,0.425293,0.3730469,0.8417969,0.2338867,-0.2250977,-0.59375
1400,34.5,-2.5,30.5625,0.4492188,0.3730469,0.9013672,0.230957,-0.2304688,-0.5859375
1401,29.5,1.0625,27.1875,0.4213867,0.3305664,0.8735352,0.2285156,-0.2280273,-0.5991211
1402,28.1875,3.1875,23.9375,0.3857422,0.3383789,0.8852539,0.2285156,-0.2280273,-0.5991211
1403,25.6875,7.6875,18.9375,0.3857422,0.3769531,0.8774414,0.2255859,-0.2407227,-0.5805664
1404,5.625,14.5625,10.5,0.409668,0.4541016,0.8300781,0.2255859,-0.2407227,-0.5805664
1405,-33,18.875,1.5,0.409668,0.6279297,0.7548828,0.2285156,-0.2407227,-0.59375
1406,-70.6875,21.125,-4.5625,0.4331055,0.6860352,0.7788086,0.2363281,-0.2456055,-0.5888672
1407,-106.1875,23.5,-4.875,0.4414063,0.6474609,0.7509766,0.2363281,-0.2456055,-0.5888672
1408,-136.125,26.25,-1.375,0.4770508,0.6977539,0.7470703,0.230957,-0.2329102,-0.5991211
1409,-162.875,28.5,1,0.4731445,0.6318359,0.7548828,0.230957,-0.2329102,-0.5991211
1410,-178.625,32.1875,0,0.4614258,0.5742188,0.7788086,0.2416992,-0.2050781,-0.5991211
1411,-180.8125,33.6875,-1.9375,0.4414063,0.4389648,0.8696289,0.2524414,-0.1791992,-0.6020508
1412,-190.0625,32.9375,-5.5,0.4453125,0.4116211,0.8457031,0.2524414,-0.1791992,-0.6020508
1414,-210.6875,32.1875,-11.4375,0.4931641,0.4462891,0.8974609,0.2441406,-0.1586914,-0.5966797
1415,-223,30.5625,-14.4375,0.465332,0.4350586,0.9604492,0.2631836,-0.1308594,-0.5991211
1416,-225.8125,31.0625,-9.625,0.3896484,0.3925781,1.043457,0.2631836,-0.1308594,-0.5991211
1417,-211.1875,28.25,-1.5625,0.4052734,0.3461914,1.094727,0.2548828,-0.112793,-0.5966797
1418,-193.75,24.1875,6.25,0.3735352,0.3110352,1.098633,0.2548828,-0.112793,-0.5966797
1419,-176.625,18.25,12.4375,0.3857422,0.2148438,1.126465,0.265625,-0.08447266,-0.5913086
1420,-154.8125,7.8125,15.8125,0.3417969,0.152832,1.185547,0.265625,-0.07421875,-0.5834961
1421,-127.1875,-1.5,19.5,0.3735352,0.08740234,1.213379,0.265625,-0.07421875,-0.5834961
1422,-113.5,-7.8125,25.75,0.3417969,0.09472656,1.134277,0.2739258,-0.04882813,-0.5859375
1423,-104.0625,-6.4375,36.1875,0.3618164,0.06396484,1.154297,0.2739258,-0.04882813,-0.5859375
1424,-94.375,-6.0625,45.875,0.3657227,-0.02441406,1.138184,0.2685547,-0.04101563,-0.5859375
1425,-86.125,-4.0625,49.3125,0.4013672,-0.1557617,1.094727,0.2685547,-0.04101563,-0.5859375
1426,-85,0.1875,46.5625,0.4414063,-0.2407227,1.09082,0.2685547,-0.04101563,-0.5859375
1427,-75.375,-2.1875,40.75,0.4570313,-0.2407227,1.059082,0.2685547,-0.01806641,-0.5673828
1428,-66.125,-4,34.75,0.4052734,-0.2138672,1.126465,0.2685547,-0.01806641,-0.5673828
1429,-52.8125,-5.5625,35.5625,0.3061523,-0.2021484,1.154297,0.2685547,-0.01806641,-0.5673828
1430,-41.4375,-8.25,39.875,0.2739258,-0.2329102,1.229492,0.2602539,-0.005371094,-0.5703125
1431,-33.6875,-13,39.875,0.2822266,-0.2446289,1.249023,0.2602539,-0.005371094,-0.5703125
1432,-31.4375,-15.125,34.8125,0.3457031,-0.2099609,1.233398,0.2709961,0.004394531,-0.5595703
1433,-27.125,-15.3125,28.3125,0.4013672,-0.1826172,1.177734,0.2709961,0.009765625,-0.578125
1434,-20.3125,-14.625,23.5625,0.425293,-0.1826172,1.189941,0.2709961,0.009765625,-0.578125
1435,-12.25,-13.625,18.875,0.3696289,-0.1054688,1.158203,0.2685547,0.004394531,-0.5703125
1436,-3.3125,-15.875,12.0625,0.4013672,-0.08251953,1.094727,0.2685547,0.004394531,-0.5703125
1437,-0.6875,-21.0625,2.25,0.4453125,-0.01660156,1.106934,0.2763672,0.02246094,-0.5805664
1438,1.5625,-22.9375,-6.4375,0.4570313,0.005859375,1.098633,0.2685547,0.01220703,-0.5649414
1439,-89.8125,-8.375,-8.4375,0.2739258,0.3149414,0.9248047,0.2685547,0.01220703,-0.5649414
1440,-45.4375,-2.9375,-11.0625,-0.02783203,-0.2138672,1.280762,0.2709961,0.01953125,-0.5625
1441,-19.75,-35.9375,21.125,0.2822266,-0.3295898,0.9448242,0.2709961,0.01953125,-0.5625
1442,-49.625,-9.875,12.75,0.409668,-0.1479492,0.9052734,0.2685547,0.01953125,-0.5546875
1443,-47.1875,-19.6875,-1.5,0.3139648,-0.1362305,0.715332,0.265625,0.02734375,-0.5649414
1444,-94.125,2.3125,4.875,0.2304688,-0.07861328,0.8974609,0.265625,0.02734375,-0.5649414
1445,-72.75,3.1875,10.3125,0.2504883,-0.1904297,0.7666016,0.2602539,0.04003906,-0.5546875
1446,-67,-4.625,13,0.4291992,-0.2177734,0.8300781,0.265625,0.04541016,-0.5571289
1447,-64.9375,5.3125,7.5,0.3935547,-0.2290039,0.9052734,0.265625,0.04541016,-0.5571289
1448,-42.125,-3.1875,-3.4375,0.4213867,-0.2368164,0.9052734,0.2631836,0.05322266,-0.5493164
1449,-31.8125,0.75,-6.625,0.4013672,-0.2524414,0.9287109,0.2631836,0.05322266,-0.5493164
1450,-24.0625,0.8125,-7.3125,0.3974609,-0.2250977,0.9169922,0.2631836,0.05322266,-0.5415039
1451,-15.4375,3,-9.125,0.4013672,-0.125,0.9248047,0.2631836,0.04785156,-0.5463867
1452,-9.8125,5.0625,-9.6875,0.4492188,-0.07470703,0.9091797,0.2631836,0.04785156,-0.5463867
1453,-6.8125,8.1875,-9.0625,0.4570313,-0.02441406,0.8813477,0.2631836,0.05810547,-0.5415039
1454,-7.375,12.1875,-8.25,0.4848633,-0.004882813,0.8535156,0.2631836,0.05810547,-0.5415039
1455,-10,18,-7.875,0.5488281,-0.03613281,0.8061523,0.265625,0.06347656,-0.5439453
1456,-14.4375,23.1875,-7.875,0.5844727,-0.03613281,0.8261719,0.2685547,0.06591797,-0.5463867
1457,-16.8125,27.9375,-8.625,0.5566406,-0.02441406,0.8183594,0.2685547,0.06591797,-0.5463867
1458,-19.125,32.125,-8.6875,0.5048828,-0.004882813,0.8974609,0.2685547,0.06591797,-0.5253906
1459,-21.3125,35.75,-7.4375,0.4970703,-0.02050781,0.9091797,0.2709961,0.06591797,-0.5361328
1460,-24.5625,38.375,-5.3125,0.4731445,-0.01269531,0.9643555,0.2709961,0.06591797,-0.5361328
1461,-28.125,41.25,-3.75,0.4414063,-0.06298828,1.003906,0.2763672,0.06835938,-0.5463867
1462,-30.9375,43.1875,-1.5,0.4213867,-0.07470703,1.063477,0.2763672,0.06835938,-0.5463867
1463,-30.4375,44.3125,1.25,0.3818359,-0.09375,1.106934,0.2763672,0.06835938,-0.5385742
1464,-29.9375,44.375,4.3125,0.3579102,-0.09375,1.094727,0.2817383,0.07861328,-0.5517578
1465,-30.625,49.75,8.3125,0.2543945,-0.2250977,1.019531,0.2817383,0.07861328,-0.5517578
1466,-33,46.125,8.6875,0.3217773,-0.1943359,1.023926,0.2817383,0.07861328,-0.5517578
1467,-25.125,45.25,1.6875,0.3417969,-0.2290039,1.075195,0.2817383,0.07861328,-0.5517578
1468,-16.5625,49.25,6.0625,0.3378906,-0.2753906,1,0.300293,0.07617188,-0.5415039
1469,-10.9375,49.125,2.5,0.3657227,-0.3295898,0.9487305,0.300293,0.08105469,-0.5385742
1470,-7.1875,51,-4.625,0.3657227,-0.3491211,0.984375,0.300293,0.08105469,-0.5385742
1471,-2.875,54.1875,-6.625,0.3535156,-0.3413086,0.9208984,0.3056641,0.08349609,-0.5200195
1472,-6.6875,57.375,-9.8125,0.3579102,-0.2753906,0.9326172,0.3056641,0.08349609,-0.5200195
1473,-12.8125,62.125,-12.5625,0.2700195,-0.1865234,0.9960938,0.3085938,0.06835938,-0.5361328
