Packet number,Gyroscope X (deg/s),Gyroscope Y (deg/s),Gyroscope Z (deg/s),Accelerometer X (g),Accelerometer Y (g),Accelerometer Z (g),Magnetometer X (G),Magnetometer Y (G),Magnetometer Z (G)
114,73.5625,11.5,-28.125,-0.4736328,0.02539063,0.9091797,0.6689453,-0.7114258,-0.2148438
115,3.0625,10.3125,-11.125,-0.5092773,0.02929688,1.015625,0.6899414,-0.706543,-0.1831055
116,-1.125,11.25,-6.5,-0.4458008,0.02148438,0.9526367,0.6821289,-0.7241211,-0.1728516
117,-6.4375,12.375,-2.125,-0.4775391,0.04443359,0.972168,0.6660156,-0.7163086,-0.1728516
118,-10.375,13.3125,0.3125,-0.4458008,0.06005859,1.023926,0.6660156,-0.7163086,-0.1728516
119,-8.125,15.1875,2.0625,-0.4619141,0.04101563,1.023926,0.6953125,-0.7089844,-0.1884766
120,-9.5625,18.375,2.5,-0.4335938,0.08740234,1.003906,0.6953125,-0.7089844,-0.1884766
121,-15.625,21.3125,1.75,-0.3823242,0.1259766,0.9921875,0.6850586,-0.706543,-0.1782227
122,-22.3125,24.375,-1,-0.4018555,0.137207,0.972168,0.6899414,-0.7163086,-0.1782227
123,-27.875,26.9375,-3.6875,-0.3901367,0.09082031,1.007813,0.6899414,-0.7163086,-0.1782227
124,-29.3125,28.375,-5.75,-0.3979492,0.05224609,1.067383,0.6928711,-0.7011719,-0.1831055
125,-23.5625,26.5,-8.875,-0.4458008,0.02929688,1.14209,0.6928711,-0.7011719,-0.1831055
126,-8.125,20.3125,-10.6875,-0.4575195,0.001953125,1.154297,0.6928711,-0.7089844,-0.159668
127,9.125,13.875,-13,-0.4975586,0.02148438,1.083008,0.6928711,-0.7011719,-0.1674805
128,8.4375,11.3125,-12.3125,-0.4697266,0.01757813,0.9760742,0.6928711,-0.7011719,-0.1674805
129,0.3125,9.375,-10.3125,-0.4853516,0.02929688,0.9960938,0.6982422,-0.7089844,-0.1704102
130,1.25,8.3125,-7.375,-0.4736328,0.02929688,0.9882813,0.6982422,-0.6987305,-0.1572266
131,2.0625,6.75,-5.4375,-0.4296875,0.04443359,1.019531,0.6982422,-0.6987305,-0.1572266
132,1.625,-0.375,-4.3125,-0.4418945,0.04833984,0.9804688,0.7006836,-0.7036133,-0.1806641
133,3.6875,-5.375,-5.9375,-0.4536133,0.04833984,0.9960938,0.7006836,-0.7036133,-0.1806641
134,2.9375,-6.5,-7.5,-0.4418945,0.08349609,0.984375,0.7060547,-0.6962891,-0.1782227
135,-0.625,-5,-7.9375,-0.4018555,0.06787109,0.9487305,0.7006836,-0.6987305,-0.1674805
136,-9,-2.6875,-7.625,-0.4536133,0.05615234,0.9013672,0.7006836,-0.6987305,-0.1674805
137,-21.875,1.5,-4.875,-0.4775391,0.04833984,0.8696289,0.7006836,-0.6987305,-0.1674805
138,-34.3125,0.4375,-1.5,-0.5014648,0.02539063,0.9248047,0.7006836,-0.6987305,-0.1674805
139,-41.0625,-4.125,0.875,-0.4975586,-0.03222656,0.9960938,0.7060547,-0.7011719,-0.1782227
140,-40.75,-10.125,6.5625,-0.5175781,-0.03613281,0.9682617,0.7060547,-0.7011719,-0.1782227
141,-45.25,-13.8125,17.0625,-0.4575195,-0.2329102,1.138184,0.7060547,-0.7011719,-0.1782227
142,-64.4375,-1.9375,24.1875,-0.6010742,-0.07080078,1.05127,0.6953125,-0.690918,-0.1831055
143,-59.6875,-7.5625,29.5,-0.5932617,-0.08251953,1,0.6953125,-0.690918,-0.1831055
144,-33.25,-28.25,15.9375,-0.4619141,0.05224609,0.9448242,0.6982422,-0.6884766,-0.1806641
145,10.9375,-33.9375,-9.1875,-0.4936523,0.06396484,1.086914,0.6953125,-0.6860352,-0.1831055
146,39.4375,-11.9375,-14.3125,-0.4335938,-0.07861328,0.9960938,0.6953125,-0.6860352,-0.1831055
147,21.1875,6.6875,-8.5,-0.5136719,-0.04736328,0.7866211,0.6796875,-0.6884766,-0.2016602
148,-8.125,9.0625,-7.4375,-0.449707,0.04101563,0.8852539,0.7006836,-0.6962891,-0.1860352
149,16.4375,2.375,-16.5625,-0.4853516,0.08349609,0.9643555,0.7006836,-0.6962891,-0.1860352
150,46.0625,-6.5,-28.6875,-0.4936523,0.06005859,0.9169922,0.6899414,-0.6884766,-0.1938477
151,49.4375,-14.875,-24.75,-0.4936523,-0.06298828,0.8222656,0.6899414,-0.6884766,-0.1938477
152,6.4375,-3.625,-4.5625,-0.4379883,-0.004882813,0.8339844,0.6875,-0.690918,-0.1860352
153,-36.4375,25.125,10.125,-0.3823242,0.1064453,1.079102,0.6953125,-0.6962891,-0.1806641
154,-28.0625,31.25,7.375,-0.3422852,0.1103516,1.011719,0.6953125,-0.6962891,-0.1806641
155,-13.3125,4.3125,-17.3125,0.1826172,0.5239258,0.4072266,0.6982422,-0.6884766,-0.1962891
156,-26.4375,-0.0625,-24.1875,-0.3222656,-0.04736328,1.320313,0.6982422,-0.6884766,-0.1962891
157,-3.875,36.625,-20.3125,-0.6962891,-0.1713867,1.308105,0.6953125,-0.6806641,-0.1860352
158,0.25,53.625,-13.75,-0.5415039,-0.1210938,0.9487305,0.7006836,-0.6806641,-0.175293
159,-0.0625,29.4375,-19.3125,-0.4575195,0.09863281,1.031738,0.7006836,-0.6806641,-0.175293
160,0.125,22.875,-19.8125,-0.640625,-0.07470703,0.8144531,0.6982422,-0.6728516,-0.1884766
161,-5.6875,19.0625,-12.3125,-0.7202148,-0.2250977,0.956543,0.6953125,-0.6860352,-0.1674805
162,-2.875,15.875,-0.75,-0.7084961,-0.1787109,0.9130859,0.6953125,-0.6860352,-0.1674805
163,-7.375,16.3125,4.8125,-0.5014648,-0.04394531,0.9604492,0.7006836,-0.6757813,-0.1704102
164,3.9375,10.25,4,-0.4379883,-0.02050781,1.007813,0.7006836,-0.6757813,-0.1704102
165,5.4375,1.3125,-1.0625,-0.4296875,0.02929688,1.071289,0.7089844,-0.6728516,-0.1728516
166,3.3125,-3.5,-2.5625,-0.4379883,0.009765625,1.05127,0.7167969,-0.6782227,-0.1674805
167,6.9375,-3.125,-2.4375,-0.4101563,-0.05126953,1.14209,0.7167969,-0.6782227,-0.1674805
168,13.625,8.8125,-0.3125,-0.4140625,-0.01269531,1.059082,0.7060547,-0.6806641,-0.1728516
169,10.1875,14,-0.3125,-0.449707,0.001953125,1.122559,0.7060547,-0.6806641,-0.1728516
170,10.3125,22.5,0.6875,-0.4575195,-0.03222656,1.122559,0.6982422,-0.6860352,-0.1860352
171,10.5,31.875,1.8125,-0.4536133,0.02148438,1.086914,0.722168,-0.6860352,-0.159668
172,8.375,39.8125,4.3125,-0.5253906,-0.01660156,1.007813,0.722168,-0.6860352,-0.159668
173,6.875,43.4375,7.8125,-0.5849609,-0.05517578,0.9804688,0.7114258,-0.6757813,-0.1806641
174,7.875,42.125,11.4375,-0.6088867,-0.04003906,0.9052734,0.7197266,-0.690918,-0.1489258
175,8.3125,42.6875,15,-0.5332031,0.009765625,0.9448242,0.7197266,-0.690918,-0.1489258
176,2.5625,41.375,15.25,-0.4936523,0.04443359,0.9013672,0.7299805,-0.6831055,-0.1464844
177,3.875,35.375,9.4375,-0.4379883,0.1025391,0.9091797,0.7299805,-0.6831055,-0.1464844
179,7.1875,32.3125,3.75,-0.4536133,0.1181641,0.9365234,0.7299805,-0.6831055,-0.1464844
180,6.5,32.1875,-1.0625,-0.4975586,0.07177734,0.8974609,0.7299805,-0.6860352,-0.1308594
181,5.9375,30.125,-2.875,-0.5214844,0.04443359,0.8696289,0.7299805,-0.6860352,-0.1308594
182,6.1875,25.375,-3.125,-0.5454102,0.02929688,0.8930664,0.7299805,-0.6860352,-0.1308594
183,7.75,19.25,-3.1875,-0.5693359,0.02148438,0.8378906,0.7299805,-0.6860352,-0.1308594
184,8.9375,12.9375,-3.25,-0.5649414,0.02929688,0.8183594,0.7353516,-0.690918,-0.1518555
185,6.625,7.9375,-3.8125,-0.5810547,0.06396484,0.8183594,0.7460938,-0.690918,-0.1279297
186,3.1875,5.4375,-4.875,-0.5292969,0.07568359,0.8457031,0.7460938,-0.690918,-0.1279297
187,3.1875,-0.0625,-5.875,-0.5175781,0.05224609,0.9013672,0.7353516,-0.6884766,-0.1386719
188,7.25,0.3125,-5.1875,-0.5649414,-0.01269531,0.940918,0.7353516,-0.6884766,-0.1386719
189,13.3125,4.8125,-5.6875,-0.5371094,-0.004882813,0.9921875,0.7460938,-0.6782227,-0.1411133
190,13.875,7.0625,-3.6875,-0.5175781,0.02929688,0.9682617,0.7436523,-0.690918,-0.1308594
191,14.375,3.375,-5.6875,-0.5415039,0.02539063,0.9326172,0.7436523,-0.690918,-0.1308594
192,12.375,0.6875,-4.8125,-0.5732422,0.005859375,0.9169922,0.7436523,-0.690918,-0.144043
193,11.625,3.125,-2.4375,-0.5932617,0.01757813,0.9052734,0.7436523,-0.690918,-0.1333008
194,9.5625,4.4375,0.875,-0.5810547,0.009765625,0.9169922,0.7436523,-0.690918,-0.1333008
195,7.6875,7.3125,4.5625,-0.5810547,0.005859375,0.956543,0.7407227,-0.6884766,-0.1230469
196,6.1875,4.9375,4.875,-0.5493164,0.04443359,0.9287109,0.7407227,-0.6884766,-0.1230469
197,3.5625,-0.0625,0.25,-0.4619141,0.1142578,0.9804688,0.7490234,-0.6933594,-0.144043
198,2.9375,-3.6875,-6.625,-0.449707,0.09472656,0.9643555,0.7436523,-0.6987305,-0.1308594
199,6.25,-4.625,-14.875,-0.4658203,0.1103516,1.063477,0.7436523,-0.6987305,-0.1308594
200,15.6875,-4.625,-20.125,-0.4536133,0.07568359,0.984375,0.7436523,-0.6860352,-0.1308594
201,9.9375,-5.3125,-19.1875,-0.5053711,0.04833984,0.9169922,0.7436523,-0.6860352,-0.1308594
202,-19.3125,-4.9375,-2.4375,-0.3583984,0.1567383,0.8100586,0.7460938,-0.690918,-0.1308594
203,-13.5,1.5,-13.75,-0.5175781,0.1181641,0.9326172,0.7382813,-0.6884766,-0.1333008
204,-8.875,-4.8125,-12.875,-0.5415039,0.09082031,0.9013672,0.7382813,-0.6884766,-0.1333008
205,-13.5,-10.8125,-11.5,-0.5136719,0.09472656,0.9487305,0.7436523,-0.6728516,-0.1386719
206,31.375,-13.875,-12.75,-0.2983398,0.1259766,1.288574,0.7490234,-0.6806641,-0.1386719
207,54.1875,-16.3125,-25.625,-0.5014648,0.04443359,0.8930664,0.7490234,-0.6806641,-0.1386719
208,23.8125,-24,-24.4375,-0.6010742,-0.004882813,0.7470703,0.7353516,-0.6860352,-0.1386719
209,4,-24.625,-6.875,-0.6166992,-0.3027344,1.003906,0.7353516,-0.6860352,-0.1386719
210,4.875,-14.4375,11.3125,-0.6884766,-0.2177734,1.14209,0.7353516,-0.6782227,-0.1518555
211,24.625,-18.4375,20.75,-0.6606445,-0.2177734,1.079102,0.7353516,-0.6884766,-0.144043
212,36,-29.75,20.25,-0.612793,-0.09765625,0.9960938,0.7353516,-0.6884766,-0.144043
213,34.5,-39.875,14.875,-0.625,-0.07861328,0.9448242,0.7299805,-0.6884766,-0.144043
214,28.9375,-39.1875,8.3125,-0.5888672,0.01757813,0.9169922,0.7299805,-0.6884766,-0.144043
215,21.875,-33.8125,4.8125,-0.5888672,0.03320313,0.8183594,0.7329102,-0.6962891,-0.1489258
216,8.375,-28.8125,6.9375,-0.5493164,0.03710938,0.7944336,0.7250977,-0.6987305,-0.1542969
217,-1,-22.5,8,-0.5454102,0.04101563,0.8417969,0.7250977,-0.6987305,-0.1542969
218,-7.0625,-16.0625,7.75,-0.5332031,0.06396484,0.8774414,0.7167969,-0.706543,-0.1572266
219,-9.875,-14.1875,5.3125,-0.4736328,0.04443359,0.9682617,0.7250977,-0.7011719,-0.159668
220,4.3125,-18.3125,-2.3125,-0.4897461,0.05615234,1.015625,0.7250977,-0.7011719,-0.159668
221,3.9375,-16.6875,-5.0625,-0.4697266,0.07177734,1.031738,0.7114258,-0.7011719,-0.1572266
222,8.5625,-14.9375,-5.0625,-0.4296875,0.07958984,1.035645,0.7114258,-0.7011719,-0.1572266
223,11.125,-12.875,-6.5,-0.4697266,0.06005859,1.039551,0.7114258,-0.7011719,-0.1572266
224,12.125,-9.6875,-7.625,-0.4775391,0.05224609,1.043457,0.7167969,-0.7011719,-0.1621094
225,10.3125,-6.6875,-5.25,-0.5214844,0.03710938,1,0.7167969,-0.7011719,-0.1621094
226,9.625,-4.6875,-3.25,-0.5014648,0.05615234,1.011719,0.7167969,-0.7011719,-0.1621094
227,8.9375,-3.3125,-0.8125,-0.4936523,0.06005859,0.9682617,0.7167969,-0.7011719,-0.1621094
228,4.375,-3.5,0.4375,-0.4736328,0.05615234,0.984375,0.7167969,-0.7036133,-0.1674805
229,3.3125,-2.0625,1.4375,-0.4853516,0.06005859,0.984375,0.7114258,-0.7011719,-0.1674805
230,-0.6875,-0.0625,2.8125,-0.4619141,0.04443359,1.031738,0.7114258,-0.7011719,-0.1674805
231,-1.75,1.75,1.625,-0.4418945,0.06005859,1.063477,0.7114258,-0.7011719,-0.1542969
232,-1.5625,4.6875,0.4375,-0.4458008,0.07568359,1.035645,0.7114258,-0.7011719,-0.1542969
233,-1,7.125,-2.25,-0.449707,0.04833984,1.043457,0.7114258,-0.7011719,-0.175293
234,-0.9375,10.25,-3.5,-0.449707,0.06005859,1.039551,0.7114258,-0.7036133,-0.1650391
235,-0.5,12.375,-5.5,-0.4296875,0.07568359,1.043457,0.7114258,-0.7036133,-0.1650391
236,0.4375,13.5625,-7.4375,-0.4975586,0.06787109,0.9682617,0.7167969,-0.6987305,-0.159668
237,1.4375,14.3125,-13.75,-0.5253906,0.09082031,1.015625,0.7275391,-0.7011719,-0.1782227
238,-1.9375,17.5625,-10.0625,-0.5053711,0.06787109,0.9960938,0.7275391,-0.7011719,-0.1782227
239,-0.625,19.25,-11.25,-0.5214844,0.06787109,0.984375,0.7114258,-0.7036133,-0.1464844
240,3.375,18.3125,-15.375,-0.5610352,0.02539063,0.9960938,0.7114258,-0.7036133,-0.1464844
241,0.8125,23.25,-14.75,-0.4658203,0.06005859,0.9682617,0.7275391,-0.690918,-0.1518555
242,1.375,28.8125,-8.1875,-0.5092773,0.08740234,0.9208984,0.7299805,-0.7036133,-0.1621094
244,-1,32.875,-9.9375,-0.4697266,0.07958984,0.9013672,0.7299805,-0.7036133,-0.1621094
245,-1,34.5,-16.25,-0.4936523,0.02929688,0.8696289,0.7275391,-0.6962891,-0.1308594
246,-6.8125,36.0625,-8.9375,-0.5175781,0.09082031,0.9091797,0.7275391,-0.6962891,-0.1308594
247,-3.6875,38.6875,-8.375,-0.5849609,-0.1132813,1.094727,0.7299805,-0.6933594,-0.1411133
248,24.9375,43.625,14.9375,-0.5014648,0.04833984,0.8974609,0.7460938,-0.6962891,-0.144043
249,15.8125,47.8125,8,-0.5454102,0.04101563,0.9248047,0.7460938,-0.6962891,-0.144043
250,12.5,43.125,11.125,-0.5493164,0.06787109,0.9130859,0.7329102,-0.6962891,-0.1279297
251,13.125,37.3125,10.1875,-0.5415039,0.1025391,0.9208984,0.7353516,-0.7036133,-0.1386719
252,11.25,32.4375,7.125,-0.5415039,0.05615234,0.8774414,0.7353516,-0.7036133,-0.1386719
253,4.625,26.3125,9.75,-0.5888672,0.09082031,0.8696289,0.7436523,-0.6962891,-0.1201172
254,1.1875,24.3125,2.625,-0.4897461,0.01367188,0.940918,0.7436523,-0.6962891,-0.1201172
255,8.8125,16,1.5625,-0.5693359,0.02929688,0.8696289,0.7543945,-0.7036133,-0.1147461
256,5.1875,7.875,0.875,-0.5493164,0.04443359,0.8891602,0.7460938,-0.7011719,-0.1254883
257,3.1875,3.9375,-0.125,-0.5571289,0.02929688,0.9130859,0.7460938,-0.7011719,-0.1254883
258,3,1.5625,0.3125,-0.5771484,0.04443359,0.9448242,0.7460938,-0.7036133,-0.1230469
259,4.375,0.8125,1,-0.5693359,0.03320313,0.972168,0.7460938,-0.7036133,-0.1230469
260,3.3125,-0.9375,0.375,-0.5610352,0.02929688,0.9448242,0.7514648,-0.706543,-0.1230469
261,0.5,-3.5,0.1875,-0.5532227,0.03710938,0.956543,0.7514648,-0.7114258,-0.1230469
262,0.0625,-5.1875,-0.0625,-0.5493164,-0.0009765625,0.9487305,0.7514648,-0.7114258,-0.1230469
263,1.5625,-6.9375,0.25,-0.5649414,0.02929688,0.9365234,0.7436523,-0.7036133,-0.1176758
264,2.3125,-8.5,0.875,-0.5649414,0.05224609,0.940918,0.7460938,-0.706543,-0.1279297
265,0.8125,-9.8125,1.0625,-0.5849609,0.02539063,0.9326172,0.7460938,-0.706543,-0.1279297
266,-0.9375,-12.3125,1.125,-0.5771484,0.03320313,0.9326172,0.7382813,-0.7114258,-0.1123047
267,-2.25,-15.5625,0.25,-0.597168,0.02929688,0.9248047,0.7382813,-0.7114258,-0.1123047
268,-2.375,-16.6875,0.3125,-0.5693359,0.02148438,0.9487305,0.7382813,-0.7114258,-0.1123047
269,-0.875,-17.5625,1.8125,-0.5415039,0.02929688,0.9487305,0.7407227,-0.7114258,-0.1201172
270,-0.1875,-17.875,3.6875,-0.5253906,0.01367188,0.9326172,0.7407227,-0.7114258,-0.1201172
271,-5.0625,-13.6875,3.625,-0.5014648,0.08349609,0.9604492,0.7407227,-0.7114258,-0.1201172
272,-9.5625,-8.1875,1,-0.5253906,0.07958984,0.9682617,0.7407227,-0.7114258,-0.1201172
273,-12.875,-5.1875,1.875,-0.5253906,0.04443359,0.9804688,0.7382813,-0.7036133,-0.1230469
274,-15.5,-1.6875,4.3125,-0.5014648,0.02929688,0.9526367,0.7490234,-0.7036133,-0.1357422
275,-15.1875,1.8125,6.1875,-0.5175781,0.05224609,0.9760742,0.7490234,-0.7036133,-0.1357422
276,-12.5625,6.9375,8,-0.5092773,0.06005859,0.972168,0.7436523,-0.7011719,-0.1147461
277,-13.4375,14.4375,10.9375,-0.5493164,0.03710938,0.984375,0.7436523,-0.7011719,-0.1147461
278,-13.625,17.8125,12.5,-0.5849609,0.05224609,0.9604492,0.7353516,-0.6987305,-0.1386719
279,-10.875,13.625,6.3125,-0.5571289,0.09082031,0.9208984,0.7436523,-0.6987305,-0.1464844
280,-12.4375,9.1875,5.375,-0.5332031,0.02929688,0.9326172,0.7436523,-0.6987305,-0.1464844
281,-11.5,3.25,2.4375,-0.5092773,0.06396484,0.9169922,0.7299805,-0.7192383,-0.1201172
282,-10.375,0,3.3125,-0.5136719,0.05615234,0.9448242,0.7460938,-0.7089844,-0.1357422
283,-7.125,0.75,4.625,-0.5214844,0.04833984,0.9526367,0.7460938,-0.7089844,-0.1357422
284,-3.8125,3,5.75,-0.5214844,0.03710938,0.9804688,0.7329102,-0.7036133,-0.1308594
285,-1.5,5.4375,5.625,-0.5371094,0.03320313,0.972168,0.7329102,-0.7036133,-0.1308594
286,-1.3125,5.6875,4.9375,-0.5415039,0.02929688,0.956543,0.7460938,-0.7114258,-0.1123047
287,-4.5,1.9375,6.5,-0.5493164,-0.01269531,0.8183594,0.7460938,-0.706543,-0.1386719
288,-17,-4.8125,9.3125,-0.5415039,0.009765625,0.9130859,0.7460938,-0.706543,-0.1386719
289,-20.5625,-7.4375,7.5625,-0.5175781,0.06787109,0.9448242,0.7329102,-0.7011719,-0.1201172
290,-19.875,-8.75,3.8125,-0.5053711,0.06396484,0.9526367,0.7329102,-0.7011719,-0.1201172
291,-14.375,-6.25,2.0625,-0.5214844,0.02929688,0.940918,0.7382813,-0.6987305,-0.1357422
292,-10,-3.4375,2.9375,-0.5253906,0.02539063,0.9487305,0.7407227,-0.6933594,-0.1386719
293,-9.25,-3.9375,2.8125,-0.5092773,0.02539063,0.9326172,0.7407227,-0.6933594,-0.1386719
294,-3.875,-10.75,-2.875,-0.4736328,0.02929688,0.9804688,0.7382813,-0.6933594,-0.1254883
295,-14,-9.875,1.8125,-0.4975586,0.02148438,0.9052734,0.7353516,-0.6987305,-0.144043
296,-39.25,-17.8125,8.4375,-0.5092773,0.02929688,0.8852539,0.7353516,-0.6987305,-0.144043
297,-48.0625,-18.875,6.25,-0.5175781,0.03320313,1.019531,0.7329102,-0.6987305,-0.144043
298,-35.6875,-22.9375,-2.5625,-0.5092773,-0.01269531,1.055176,0.7329102,-0.6987305,-0.144043
299,-20.8125,-18.3125,-5.6875,-0.5253906,-0.03222656,1.059082,0.7275391,-0.6962891,-0.1386719
300,-11.125,1.8125,1.875,-0.5092773,0.03710938,1.031738,0.7353516,-0.6884766,-0.159668
301,1.4375,12.1875,-0.9375,-0.5415039,0.05615234,0.9487305,0.7353516,-0.6884766,-0.159668
302,3.25,10.9375,-2.375,-0.5810547,0.009765625,0.9487305,0.7353516,-0.690918,-0.1489258
303,3.1875,7.625,-1.5,-0.5532227,0.001953125,0.9487305,0.7353516,-0.690918,-0.1489258
304,2.375,5.625,-0.75,-0.5415039,0.001953125,0.9487305,0.7329102,-0.6933594,-0.1357422
305,2.125,3.6875,-0.75,-0.5532227,0.01757813,0.9604492,0.7382813,-0.6884766,-0.1704102
306,2.6875,3.3125,0,-0.5415039,0.01367188,0.9604492,0.7382813,-0.6884766,-0.1704102
307,4.3125,2.5,0.5,-0.5292969,0.02539063,0.9526367,0.7329102,-0.690918,-0.1201172
309,5.875,-0.8125,2.0625,-0.5292969,0.04101563,0.956543,0.7329102,-0.690918,-0.1201172
310,10,-5.6875,4.625,-0.5253906,0.04101563,0.972168,0.7329102,-0.690918,-0.1201172
311,7.375,-4.625,2,-0.5649414,0.009765625,0.9804688,0.7353516,-0.690918,-0.1542969
312,6.75,-3.5625,2.9375,-0.5092773,0.005859375,0.972168,0.7353516,-0.690918,-0.1542969
313,10.25,-4.25,3.25,-0.5136719,0.03320313,1.007813,0.7353516,-0.690918,-0.1542969
314,11.0625,-3.25,2.375,-0.5136719,0.02929688,0.972168,0.7329102,-0.6933594,-0.1464844
315,9.1875,-0.4375,2.1875,-0.5092773,0.04443359,0.956543,0.7329102,-0.6933594,-0.1464844
316,7.875,0.9375,1.5625,-0.5214844,0.02929688,0.9365234,0.7299805,-0.7011719,-0.144043
317,4.75,2.375,0.75,-0.5214844,0.03320313,0.9526367,0.7299805,-0.7011719,-0.144043
318,3.3125,3.25,0.4375,-0.5136719,0.02539063,0.9448242,0.7353516,-0.690918,-0.1333008
319,2,2.0625,0.4375,-0.5136719,0.02539063,0.9169922,0.7329102,-0.6933594,-0.144043
320,1.625,-1.1875,0.625,-0.5332031,0.03710938,0.9487305,0.7329102,-0.6933594,-0.144043
321,3,-3.25,1.1875,-0.5136719,0.05224609,0.940918,0.7275391,-0.7036133,-0.1357422
322,1.3125,-3.3125,1.4375,-0.5371094,0.02929688,0.9326172,0.7275391,-0.7036133,-0.1357422
323,-0.625,-3.1875,3.25,-0.5493164,0.02539063,0.972168,0.7299805,-0.706543,-0.1357422
324,0.5625,-0.8125,5.8125,-0.5332031,0.05224609,0.9448242,0.7250977,-0.6933594,-0.1489258
325,1.8125,2.375,7.75,-0.5332031,0.01367188,0.9526367,0.7250977,-0.6933594,-0.1489258
326,1.9375,2.625,9,-0.5292969,0.04833984,0.8974609,0.7275391,-0.7089844,-0.1279297
327,1.3125,2.125,10.0625,-0.5332031,0.05224609,0.9287109,0.7329102,-0.6987305,-0.1333008
328,3.1875,3.1875,11.1875,-0.5415039,0.05224609,0.9287109,0.7329102,-0.6987305,-0.1333008
329,7.5625,2.5625,9.5,-0.5253906,0.1064453,0.9287109,0.7329102,-0.6962891,-0.1518555
330,12.3125,-2.625,4.875,-0.5214844,0.1103516,0.9208984,0.7329102,-0.6962891,-0.1518555
331,16.5625,-10.3125,-3.125,-0.5136719,0.08740234,0.9448242,0.7299805,-0.6987305,-0.1308594
332,22.25,-16.5625,-7,-0.5732422,0.06005859,0.9804688,0.7167969,-0.7036133,-0.144043
333,28.625,-18.9375,-7.25,-0.5693359,0.06396484,0.9960938,0.7167969,-0.7036133,-0.144043
334,36.9375,-17.75,-9.4375,-0.5332031,0.08349609,1.047363,0.7299805,-0.7089844,-0.1464844
335,66.125,8.875,-11.9375,-0.5253906,0.3461914,1,0.7299805,-0.7089844,-0.1464844
336,44.3125,30.5,-21.75,-0.7084961,0.2495117,1.071289,0.722168,-0.706543,-0.1411133
337,54.0625,41.6875,-28.125,-0.8041992,0.21875,1.075195,0.7275391,-0.7114258,-0.1489258
338,56.75,49.0625,-31.25,-0.8793945,0.3344727,1.031738,0.7275391,-0.7114258,-0.1489258
339,60.25,46.8125,-39.5,-1.010742,0.4350586,1.094727,0.7329102,-0.7192383,-0.1201172
340,94.25,35.9375,-42.1875,-1.14209,0.5585938,1.245117,0.7353516,-0.7138672,-0.1123047
341,80.75,29.1875,-54.3125,-1.237793,0.5742188,1.316406,0.7353516,-0.7138672,-0.1123047
342,59.375,26.8125,-57.1875,-1.369141,0.6166992,1.478027,0.7460938,-0.7138672,-0.1230469
343,55.0625,20.8125,-62.9375,-1.420898,0.6821289,1.561035,0.7460938,-0.7138672,-0.1230469
344,50.75,17.875,-72.1875,-1.520508,0.7094727,1.664063,0.7353516,-0.706543,-0.1015625
345,46.5625,20.75,-79.375,-1.615723,0.7631836,1.758789,0.7353516,-0.7089844,-0.09130859
346,43.375,31.5625,-90.1875,-1.787109,0.8598633,1.826172,0.7353516,-0.7089844,-0.09130859
347,41.9375,49.625,-103.5625,-1.878418,0.9101563,1.944824,0.7460938,-0.6962891,-0.09667969
348,53.0625,77.3125,-125.75,-1.958008,0.9990234,1.996094,0.7460938,-0.6962891,-0.09667969
349,46.8125,111,-142.125,-2.085449,0.9448242,2.047363,0.7543945,-0.6860352,-0.07519531
350,55.25,143.375,-163.5625,-2.161133,0.9604492,2.106934,0.7729492,-0.6757813,-0.0703125
351,61.5625,181.9375,-187.3125,-2.236816,0.9140625,2.233398,0.7729492,-0.6757813,-0.0703125
352,58.8125,220.125,-209.25,-2.248535,0.9760742,2.288574,0.7836914,-0.6499023,-0.04931641
353,48.75,242.9375,-231.75,-2.280762,0.9833984,2.328125,0.7836914,-0.6499023,-0.04931641
354,34,249.875,-257.3125,-2.23291,1.083984,2.379395,0.7836914,-0.6499023,-0.04931641
355,12.75,242.9375,-287.75,-2.17334,1.130371,2.415039,0.8208008,-0.5961914,0.01611328
356,-18,237.8125,-318.8125,-1.962402,1.11084,2.442871,0.8208008,-0.5961914,0.01611328
357,-52.625,224.125,-348.3125,-1.620117,1.130371,2.347656,0.8208008,-0.5961914,0.01611328
358,-94.25,189.8125,-378.5,-1.237793,1.196289,2.158203,0.8237305,-0.5117188,0.08740234
359,-137.875,141.3125,-404.3125,-0.7202148,1.087891,2.015625,0.8237305,-0.5117188,0.08740234
360,-177.375,87.9375,-425.375,-0.2705078,1.037598,1.782715,0.8237305,-0.453125,0.1030273
361,-201.75,24.75,-435.1875,-0.08349609,0.8598633,1.754883,0.8237305,-0.453125,0.1030273
362,-248.875,-30.75,-440.375,0.7397461,0.9101563,1.071289,0.8261719,-0.3916016,0.1108398
363,-292.1875,-94.8125,-442.9375,0.9863281,0.4658203,1.154297,0.8154297,-0.3071289,0.1137695
364,-301.5625,-131.4375,-411.8125,1.555664,0.1953125,0.7905273,0.8154297,-0.3071289,0.1137695
365,-300.625,-89.75,-376.25,2.208496,0.2651367,0.6958008,0.7783203,-0.2353516,0.09521484
366,-260.9375,26.6875,-322.8125,2.865234,-0.1362305,0.7036133,0.7783203,-0.2353516,0.09521484
367,-222.6875,201.0625,-243.125,3.744629,-0.434082,0.3950195,0.7460938,-0.2021484,0.1083984
368,-172.1875,332.5,-149.375,4.41748,-0.7895508,-0.5014648,0.7460938,-0.1459961,0.1503906
369,-139,379.8125,-50.375,4.807617,-0.9399414,-0.9916992,0.7460938,-0.1459961,0.1503906
370,-77.125,377.375,48.3125,4.803711,-1.237793,-1.805664,0.7299805,-0.1333008,0.203125
371,-37.9375,328.8125,151.5625,4.51709,-1.361328,-2.280273,0.7436523,-0.1411133,0.2583008
372,11,268.75,253.875,4.353516,-1.195313,-2.185059,0.7436523,-0.1411133,0.2583008
374,66.9375,222.9375,337.375,3.916016,-0.9013672,-1.995605,0.7651367,-0.1586914,0.2768555
375,115.0625,183.1875,397.6875,3.390625,-0.3374023,-1.679199,0.7651367,-0.1586914,0.2768555
376,154.875,156.625,435.625,2.821289,0.04833984,-1.256348,0.7861328,-0.2075195,0.3081055
377,172.875,127.6875,460.75,2.32373,0.4116211,-0.9916992,0.8051758,-0.269043,0.3320313
378,178.0625,81.875,476.0625,1.858398,0.7441406,-0.7426758,0.8051758,-0.269043,0.3320313
379,179,43.25,483.125,1.42041,1.021973,-0.434082,0.8344727,-0.3276367,0.3212891
380,171.375,7.75,482.125,0.9985352,1.230957,-0.2841797,0.8344727,-0.3276367,0.3212891
381,160.875,-28.3125,477.8125,0.5366211,1.412598,-0.1655273,0.831543,-0.4145508,0.3398438
382,155.4375,-58.3125,471.625,-0.09960938,1.52832,-0.1181641,0.8422852,-0.4682617,0.3295898
383,156.5,-57.375,467.3125,-0.8637695,1.768066,-0.003417969,0.8422852,-0.4682617,0.3295898
384,163.6875,-22.8125,455.875,-1.854492,1.891602,0.1342773,0.8422852,-0.5400391,0.3266602
385,167.625,40.3125,444.8125,-3.13623,2.022949,0.4072266,0.831543,-0.6064453,0.3266602
386,162.375,126.375,407.0625,-4.135254,2.162109,0.371582,0.831543,-0.6064453,0.3266602
387,147.8125,200.3125,351.125,-5.811035,2.351563,0.284668,0.831543,-0.6577148,0.3476563
388,119.0625,239.5625,267.625,-6.969238,2.467285,-0.09033203,0.831543,-0.6577148,0.3476563
389,93.625,210.5625,157.125,-7.772949,2.459473,-0.6479492,0.8076172,-0.7011719,0.3847656
390,75.5,148.0625,35.9375,-8.051758,2.235352,-1.070801,0.7836914,-0.7294922,0.4267578
391,67.5625,76,-82.75,-7.809082,2.053711,-1.177246,0.7836914,-0.7294922,0.4267578
392,76.125,20.0625,-190.4375,-7.064453,1.918457,-0.9165039,0.8022461,-0.7294922,0.4453125
393,92.875,-1.8125,-282.4375,-6.177246,1.879883,-0.3432617,0.8022461,-0.7294922,0.4453125
394,107.3125,4.8125,-353.6875,-5.098633,1.879883,0.3398438,0.7807617,-0.6806641,0.4506836
395,98.125,14.75,-411.8125,-4.027832,2.022949,1.055176,0.8051758,-0.6220703,0.4477539
396,61,17.1875,-458.625,-3.140137,2.084961,1.54541,0.8051758,-0.6220703,0.4477539
397,15.625,10,-498.8125,-2.356445,2.127441,1.695801,0.8208008,-0.5732422,0.4399414
398,-33.0625,-6.6875,-529.5625,-1.639648,2.06543,1.774902,0.8208008,-0.5732422,0.4399414
399,-81.1875,-22.6875,-552.9375,-1.019043,2.053711,1.640137,0.8208008,-0.5732422,0.4399414
400,-118.75,-33.875,-572.9375,-0.394043,1.980469,1.513672,0.8105469,-0.4272461,0.4321289
401,-147.3125,-41.6875,-580.5,0.1826172,1.875977,1.280762,0.8105469,-0.4272461,0.4321289
402,-175.875,-45.9375,-579,0.6723633,1.856934,0.9643555,0.8105469,-0.4272461,0.4321289
403,-191.5,-36.0625,-572.5625,1.102051,1.725586,0.9960938,0.7807617,-0.2792969,0.4135742
404,-203,-7.3125,-558.6875,1.42041,1.489746,0.9604492,0.7807617,-0.2792969,0.4135742
405,-199.75,33.25,-533,1.714844,-1.032715,1.735352,0.7568359,-0.2050781,0.4135742
406,-181.625,88.125,-535.9375,2.140625,1.38916,0.6166992,0.7568359,-0.2050781,0.4135742
407,-180.625,144.9375,-548.25,2.407227,1.481934,0.628418,0.7275391,-0.1484375,0.4375
408,-204.6875,170.0625,-567.625,2.542969,1.23877,-0.1181641,0.6767578,-0.1025391,0.4663086
409,-222.5,127.6875,-569.6875,2.996582,0.6010742,-1.050781,0.6767578,-0.1025391,0.4663086
410,-146.5,83.25,-516.5,3.478027,-0.3759766,-1.869141,0.6098633,-0.03613281,0.4951172
411,-128.375,43.125,-392.25,4.301758,-0.9863281,-1.924316,0.6098633,-0.03613281,0.4951172
412,-31.1875,109.375,-249.6875,4.600586,-1.214355,-1.679199,0.5620117,-0.01806641,0.5214844
413,-46.75,89.75,-103.9375,4.958496,-1.67041,-2.098145,0.5327148,0.004394531,0.5400391
414,41,105.0625,51.9375,4.942871,-1.024902,-1.675293,0.5327148,0.004394531,0.5400391
415,98.875,140.75,177.8125,4.568848,-0.8320313,-1.406738,0.5244141,0.01953125,0.5424805
416,129.9375,142.5625,287.875,4.03125,-0.3681641,-1.137695,0.5273438,-0.005371094,0.5454102
417,152.0625,128.1875,372.5625,3.34668,0.04833984,-0.8613281,0.5273438,-0.005371094,0.5454102
418,169.3125,111.9375,424.875,2.733887,0.4619141,-0.5844727,0.5620117,-0.01318359,0.5454102
419,181.5625,86.6875,461.3125,2.271973,0.7905273,-0.3354492,0.5620117,-0.01318359,0.5454102
420,183.3125,47.5,487.5625,1.894043,1.083984,-0.1220703,0.5942383,-0.02832031,0.5292969
421,186,7.125,505.1875,1.65918,1.362305,0.07519531,0.6259766,-0.08203125,0.5268555
422,181.9375,-26.8125,518.25,1.424316,1.555176,0.284668,0.6259766,-0.08203125,0.5268555
423,171.625,-55,528.6875,1.265137,1.683105,0.3637695,0.6850586,-0.1206055,0.5029297
424,171.9375,-66.5625,536.4375,1.109863,1.760254,0.371582,0.6850586,-0.1206055,0.5029297
425,178.6875,-73.5625,545.125,1.046387,1.914551,0.3515625,0.722168,-0.1665039,0.4873047
426,184.25,-84.8125,555.5,0.8950195,2.038574,0.3676758,0.7407227,-0.2353516,0.4765625
427,189.0625,-100.625,562.5,0.7319336,2.20459,0.4389648,0.7407227,-0.2353516,0.4765625
428,191.3125,-118.5,572.125,0.5966797,2.335938,0.5532227,0.7861328,-0.2890625,0.4555664
429,184.125,-140.5,585.4375,0.3535156,2.490234,0.6640625,0.8022461,-0.3608398,0.4477539
430,178.4375,-160.75,598.5625,0.1508789,2.683594,0.8222656,0.8022461,-0.3608398,0.4477539
431,170.625,-162.75,617.3125,-0.1713867,2.764648,1.134277,0.8154297,-0.4169922,0.4423828
432,166,-103.75,638.25,-0.7524414,2.888672,1.667969,0.8154297,-0.4169922,0.4423828
433,151.1875,30.5625,650.5,-1.719238,3.329102,2.324219,0.8261719,-0.5273438,0.4213867
434,108.5625,176.75,637.0625,-2.961426,3.665039,2.458496,0.8154297,-0.6118164,0.4423828
435,32.75,277.4375,577.25,-4.469727,3.676758,1.897461,0.8154297,-0.6118164,0.4423828
436,-45.6875,263.625,504.8125,-5.655762,3.440918,1.059082,0.7807617,-0.6884766,0.4716797
437,-112.6875,192.0625,424.375,-6.539551,3.03125,0.08300781,0.7807617,-0.6884766,0.4716797
439,-128.3125,114.75,332.6875,-7.339355,2.556152,-0.7265625,0.7514648,-0.7675781,0.5058594
440,-117.75,53.125,231.8125,-7.836914,2.150391,-1.220703,0.7114258,-0.8188477,0.5112305
441,-90.5,9.375,126.25,-8.003906,1.837402,-1.635742,0.7114258,-0.8188477,0.5112305
442,-62.1875,-9.9375,21.3125,-7.900391,1.555176,-1.77002,0.7114258,-0.8574219,0.5112305
443,-18.9375,-2.1875,-78.5,-7.494629,1.443359,-1.813965,0.7114258,-0.8574219,0.5112305
444,26.875,9.5,-174.25,-6.849609,1.478027,-1.77002,0.7114258,-0.8574219,0.5112305
445,63.25,12.1875,-254.125,-5.898438,1.617188,-1.556641,0.7006836,-0.8291016,0.5058594
446,93.8125,16.9375,-318.5,-4.987305,1.756348,-1.205078,0.7006836,-0.8291016,0.5058594
447,123.5625,41.375,-366.375,-4.155273,1.895508,-0.7700195,0.7006836,-0.8291016,0.5058594
448,148.375,79.25,-398.9375,-3.518555,2.022949,-0.2841797,0.7460938,-0.7294922,0.5268555
449,160.9375,112.875,-423.125,-3.056641,2.227539,0.1303711,0.7460938,-0.7294922,0.5268555
450,157.125,132.1875,-446.9375,-2.750488,2.370605,0.5532227,0.7568359,-0.6679688,0.5400391
451,139.625,142.4375,-469.875,-2.439941,2.378418,0.7392578,0.7568359,-0.6679688,0.5400391
452,122.5,147.375,-488.75,-2.141113,2.30127,0.8339844,0.7753906,-0.6015625,0.550293
453,108.4375,150.5,-501.9375,-1.811035,2.166016,0.8417969,0.7460938,-0.5195313,0.5664063
454,101.4375,155.375,-510.5,-1.544434,2.015137,0.8891602,0.7460938,-0.5195313,0.5664063
455,95.75,162.6875,-509.6875,-1.269531,1.794922,1.035645,0.7514648,-0.453125,0.5795898
456,86.4375,166.3125,-504.75,-1.14209,1.706055,1.122559,0.7514648,-0.453125,0.5795898
457,74.875,149.0625,-501.5,-0.9233398,1.58252,1.154297,0.7407227,-0.3789063,0.5844727
458,58.125,118.6875,-498.875,-0.625,1.412598,1.007813,0.6953125,-0.3071289,0.6030273
459,45.75,89.0625,-491.875,-0.3183594,1.153809,0.8696289,0.6953125,-0.3071289,0.6030273
460,41,74.9375,-475.125,-0.04003906,0.9331055,0.7114258,0.6743164,-0.2485352,0.6083984
461,41.125,75.5,-453.6875,0.1469727,0.7519531,0.6245117,0.652832,-0.2050781,0.6083984
462,49.8125,85.375,-425.6875,0.2304688,0.512207,0.6484375,0.652832,-0.2050781,0.6083984
463,54.75,106.8125,-397.1875,0.2900391,0.4814453,0.6166992,0.6098633,-0.1616211,0.605957
464,55.0625,121.5625,-374.8125,0.3378906,0.4541016,0.5732422,0.6098633,-0.1616211,0.605957
465,53.8125,124.4375,-353.9375,0.2861328,0.3500977,0.5297852,0.5913086,-0.1000977,0.6005859
466,50.875,123.6875,-329.9375,0.2900391,0.2612305,0.4584961,0.5541992,-0.08447266,0.6108398
467,51.625,120.875,-308,0.3061523,0.1875,0.3833008,0.5541992,-0.08447266,0.6108398
468,59.625,122.3125,-288.75,0.206543,0.1489258,0.355957,0.5058594,-0.05664063,0.621582
469,73.75,134,-269.25,0.1748047,0.1567383,0.34375,0.5058594,-0.05664063,0.621582
470,91.25,148.5625,-254.8125,0.1665039,0.1259766,0.4150391,0.4819336,-0.03076172,0.6191406
471,97.1875,148.8125,-241.25,0.1347656,0.1259766,0.3676758,0.4365234,-0.01806641,0.6162109
472,100.375,139.9375,-227.5625,0.1586914,0.08740234,0.3041992,0.4365234,-0.01806641,0.6162109
473,102.5625,126.25,-215.4375,0.1704102,0.07177734,0.2807617,0.4042969,0.02246094,0.6191406
474,110.875,117.5,-205.875,0.2104492,0.04833984,0.2607422,0.3671875,0.02978516,0.5976563
475,119.9375,111.5625,-197.4375,0.2182617,0.04443359,0.300293,0.3671875,0.02978516,0.5976563
476,125.9375,104.125,-190.375,0.2583008,0.02539063,0.3515625,0.3325195,0.04296875,0.5898438
477,127.5,96.75,-184.5625,0.2382813,0.001953125,0.3793945,0.3325195,0.04296875,0.5898438
478,126.125,89.5,-179.0625,0.2978516,-0.004882813,0.3793945,0.3188477,0.06591797,0.5898438
479,124.4375,82.0625,-173.8125,0.3139648,-0.05126953,0.3320313,0.2871094,0.08105469,0.5634766
480,124.875,76,-169.375,0.3417969,-0.08642578,0.3398438,0.2871094,0.08105469,0.5634766
481,126.9375,68.6875,-165.3125,0.3496094,-0.09375,0.3242188,0.2631836,0.08349609,0.5556641
482,126.3125,58.125,-161.375,0.4291992,-0.1289063,0.2807617,0.2631836,0.08349609,0.5556641
483,124.5,42.3125,-157.8125,0.480957,-0.1328125,0.2729492,0.2578125,0.1069336,0.5400391
484,119.125,25.3125,-156.5625,0.5288086,-0.1674805,0.300293,0.2231445,0.09667969,0.534668
485,112.0625,11.6875,-152.6875,0.6044922,-0.2675781,0.300293,0.2231445,0.09667969,0.534668
486,104.125,2.1875,-145.1875,0.7475586,-0.3256836,0.3676758,0.1962891,0.1171875,0.5083008
487,96.3125,-4.0625,-133.6875,0.8710938,-0.3994141,0.3676758,0.1962891,0.1171875,0.5083008
488,82.1875,-7.4375,-118.8125,0.875,-0.3955078,0.4345703,0.1962891,0.1171875,0.5083008
489,73.875,-4.9375,-110.6875,0.8193359,-0.9287109,0.4345703,0.1616211,0.1274414,0.4926758
490,46.625,-2.625,-83.875,1.161621,-0.5229492,0.4428711,0.1616211,0.1274414,0.4926758
491,38.0625,7,-60.9375,1.241211,-0.6772461,0.4306641,0.1616211,0.1274414,0.4926758
492,24.3125,26.3125,-33.5625,1.296875,-0.7392578,0.3911133,0.1484375,0.1298828,0.4873047
493,16.8125,53.6875,-5.3125,1.329102,-0.8359375,0.3950195,0.1484375,0.1298828,0.4873047
494,8.6875,81.375,23.5,1.34082,-0.8007813,0.4150391,0.1376953,0.1274414,0.4741211
495,-0.6875,111.0625,52.375,1.36084,-0.7856445,0.4663086,0.1376953,0.1274414,0.4741211
496,-16.625,136.25,80.0625,1.329102,-0.762207,0.4702148,0.1455078,0.1503906,0.4638672
497,-31.875,158.25,105.75,1.316895,-0.7353516,0.4345703,0.1533203,0.1425781,0.4819336
498,-43.875,172.3125,128.625,1.34082,-0.6811523,0.34375,0.1533203,0.1425781,0.4819336
499,-57.1875,170.25,150.375,1.253418,-0.6503906,0.328125,0.1508789,0.1274414,0.4848633
500,-73.1875,156.9375,170.1875,1.229492,-0.6118164,0.3164063,0.1508789,0.1274414,0.4848633
501,-86.5625,145.0625,188.1875,1.289063,-0.5615234,0.2768555,0.1777344,0.1347656,0.4897461
502,-95.125,143.8125,208.0625,1.36084,-0.5341797,0.2768555,0.1831055,0.1196289,0.4951172
504,-103.25,145.4375,231.5,1.392578,-0.4570313,0.2607422,0.1831055,0.1196289,0.4951172
505,-110.625,146.5,255.625,1.404297,-0.3603516,0.3164063,0.1987305,0.1171875,0.519043
506,-117.1875,149.375,278.125,1.348633,-0.2250977,0.3911133,0.2387695,0.1220703,0.5214844
507,-127.3125,157.75,299.6875,1.257324,-0.04394531,0.4741211,0.2387695,0.1220703,0.5214844
508,-141.5625,162.25,317.5,1.249023,0.1064453,0.5888672,0.2441406,0.08886719,0.5532227
509,-157.5,156.875,332.9375,1.145996,0.2802734,0.644043,0.2441406,0.08886719,0.5532227
510,-173.75,142.1875,344.9375,1.014648,0.4077148,0.6835938,0.2871094,0.07080078,0.5717773
511,-190.6875,120.4375,353.5625,0.9467773,0.5161133,0.6523438,0.3271484,0.05566406,0.6005859
512,-205.625,91.375,358.6875,0.8671875,0.6821289,0.6958008,0.3271484,0.05566406,0.6005859
513,-216.75,59.8125,360.875,0.7836914,0.7983398,0.6523438,0.3271484,0.02490234,0.621582
514,-219.125,30.5,362.5,0.7080078,0.855957,0.6401367,0.3271484,0.02490234,0.621582
515,-216.3125,-2.875,365.875,0.7197266,0.9760742,0.6401367,0.3833008,-0.002929688,0.6425781
516,-213.3125,-31.75,372.875,0.6401367,1.087891,0.7626953,0.4042969,-0.04101563,0.6713867
517,-212.875,-49.75,381.125,0.644043,1.23877,0.8579102,0.4042969,-0.04101563,0.6713867
518,-227,-59.75,397.5,0.4013672,1.083984,0.7788086,0.4311523,-0.08203125,0.6796875
519,-226.875,-62.625,411.1875,0.65625,1.458984,0.9960938,0.484375,-0.1254883,0.6977539
520,-243.8125,-72.8125,429.5,0.5844727,1.547852,0.9326172,0.484375,-0.1254883,0.6977539
521,-246.9375,-75.375,456.625,0.5488281,1.694336,0.8852539,0.503418,-0.1767578,0.7138672
522,-249.1875,-71.625,480.5,0.465332,1.810547,0.9248047,0.503418,-0.1767578,0.7138672
523,-250.3125,-63.0625,500.1875,0.3300781,2.049805,0.940918,0.5273438,-0.2353516,0.7216797
524,-253.8125,-56.0625,512.5,0.1469727,2.316406,0.9526367,0.5673828,-0.3071289,0.7373047
525,-261,-58.9375,522.1875,0.007324219,2.529297,0.9760742,0.5673828,-0.3071289,0.7373047
526,-276.0625,-83.4375,532.875,-0.2148438,2.814941,1.035645,0.5888672,-0.3662109,0.7402344
527,-296.75,-121,541.875,-0.4101563,3.050781,0.9960938,0.5888672,-0.3662109,0.7402344
528,-310.625,-145.9375,551.8125,-0.5649414,3.220703,0.9604492,0.5966797,-0.4658203,0.7402344
529,-320.3125,-158.3125,562.5625,-0.7402344,3.398438,0.8535156,0.6206055,-0.534668,0.7348633
530,-324.75,-159.3125,572.4375,-0.9433594,3.657227,0.7431641,0.6206055,-0.534668,0.7348633
531,-328.5625,-152.75,579.5625,-1.182129,3.951172,0.6879883,0.6152344,-0.6142578,0.7163086
532,-335.375,-146.6875,588.0625,-1.556152,4.182617,0.4267578,0.6152344,-0.6142578,0.7163086
533,-335.375,-132.875,590.5,-1.93457,4.434082,0.3081055,0.6152344,-0.6142578,0.7163086
534,-334.6875,-105.75,576.5625,-2.45166,4.669434,0.09472656,0.5859375,-0.8085938,0.6635742
535,-336.0625,-73.5,546.1875,-3.028809,4.781738,-0.1616211,0.5859375,-0.8085938,0.6635742
536,-343.875,-46.3125,505.6875,-3.653809,4.719727,-0.5214844,0.5859375,-0.8085938,0.6635742
537,-346.375,-3.4375,447.0625,-4.302734,4.472656,-0.9956055,0.4897461,-0.9750977,0.605957
538,-336.4375,41.25,377.3125,-4.963379,4.155762,-1.62793,0.4897461,-0.9750977,0.605957
539,-315.6875,87,291.1875,-5.560059,3.738281,-2.375,0.4311523,-1.033691,0.5742188
540,-282.8125,122.125,194.4375,-6.001953,3.325195,-3.039063,0.4311523,-1.033691,0.5742188
541,-236.625,149.4375,89.0625,-6.236816,3.000488,-3.647949,0.3911133,-1.066895,0.5478516
542,-168.875,166.875,-13.75,-6.125488,2.656738,-4.086426,0.3671875,-1.110352,0.519043
543,-82.25,167.8125,-109.375,-5.70752,2.432617,-4.347168,0.3671875,-1.110352,0.519043
544,18.25,146,-183.4375,-5.138184,2.30127,-4.367188,0.3642578,-1.10791,0.5214844
545,119.5,114.5625,-240,-4.441895,2.374512,-3.967773,0.3642578,-1.10791,0.5214844
546,212.75,78.5625,-282.875,-3.800781,2.494141,-3.319824,0.394043,-1.103027,0.5268555
547,300.125,56.5625,-317.5625,-3.140137,2.795898,-2.418457,0.434082,-1.069824,0.550293
548,338.25,45.625,-343.625,-2.682617,3.301758,-1.371094,0.434082,-1.069824,0.550293
549,325.5625,22.3125,-372.875,-2.344238,3.634277,-0.5805664,0.4741211,-1.000488,0.605957
550,299.625,3.125,-405.5625,-2.01416,3.65332,-0.1850586,0.5195313,-0.9467773,0.6240234
551,276.8125,0.5625,-433.125,-1.703613,3.529785,0.1225586,0.5195313,-0.9467773,0.6240234
552,257.9375,10.6875,-450.125,-1.404785,3.340332,0.2294922,0.5620117,-0.8623047,0.6479492
553,248.0625,28.8125,-457.125,-1.186035,3.124023,0.300293,0.5620117,-0.8623047,0.6479492
554,248.0625,51.3125,-454.75,-1.010742,2.888672,0.34375,0.5834961,-0.7958984,0.6533203
555,252.5625,73,-445.125,-0.9033203,2.664551,0.328125,0.6289063,-0.7368164,0.6582031
556,263.75,83.1875,-433.125,-0.7763672,2.459473,0.2490234,0.6289063,-0.7368164,0.6582031
557,280.8125,84.125,-413.75,-0.6845703,2.200684,0.2016602,0.6313477,-0.6499023,0.6821289
558,300.875,91.8125,-391.875,-0.597168,2.169922,0.5336914,0.6313477,-0.6499023,0.6821289
559,284.5625,90.8125,-379.75,-0.7006836,2.277832,0.7749023,0.6235352,-0.5859375,0.6899414
560,242.9375,84.3125,-381.125,-0.7363281,2.20459,1.031738,0.6396484,-0.5273438,0.6977539
561,207.6875,86.25,-383.125,-0.6884766,1.937988,0.9208984,0.6396484,-0.5273438,0.6977539
562,181.4375,97.4375,-381,-0.5571289,1.659668,0.8496094,0.6181641,-0.4707031,0.703125
563,177.0625,118.875,-371.4375,-0.4018555,1.435547,0.7192383,0.6181641,-0.4121094,0.7109375
564,181.0625,143.5,-354.75,-0.3623047,1.265625,0.6679688,0.6181641,-0.4121094,0.7109375
565,183.5,164.9375,-336.0625,-0.3701172,1.157227,0.5966797,0.6049805,-0.3608398,0.7138672
566,192.1875,178.8125,-319.1875,-0.3662109,1.072266,0.5136719,0.6049805,-0.3608398,0.7138672
567,206.6875,183.75,-302.125,-0.3701172,0.9448242,0.3994141,0.5698242,-0.3046875,0.71875
569,216.125,175.5,-285.625,-0.4018555,0.8637695,0.34375,0.5566406,-0.2612305,0.7319336
570,222.8125,158.375,-273.3125,-0.4296875,0.8369141,0.34375,0.5566406,-0.2612305,0.7319336
571,222.6875,132.3125,-266.125,-0.394043,0.8330078,0.3515625,0.5087891,-0.2099609,0.7294922
572,209.8125,99.125,-263.3125,-0.4736328,0.8442383,0.3950195,0.5087891,-0.2099609,0.7294922
573,189.375,63.5625,-265,-0.4458008,0.7709961,0.4111328,0.4794922,-0.1791992,0.7270508
574,170.8125,28.6875,-268.6875,-0.3540039,0.6474609,0.3754883,0.4658203,-0.1435547,0.7084961
575,158.75,1.5625,-267.4375,-0.3027344,0.5854492,0.3203125,0.4658203,-0.1435547,0.7084961
576,156.3125,-13.75,-263,-0.190918,0.4389648,0.300293,0.4394531,-0.1103516,0.6977539
577,157.75,-21.125,-256.4375,-0.1630859,0.3574219,0.3125,0.4394531,-0.1103516,0.6977539
578,153.875,-26.625,-247.4375,-0.1552734,0.3730469,0.2924805,0.4394531,-0.1103516,0.6977539
579,146.3125,-24.375,-243,-0.1992188,0.2919922,0.2768555,0.4179688,-0.05371094,0.6689453
580,150.6875,-14.1875,-241.0625,-0.1591797,0.1914063,0.1855469,0.4179688,-0.05371094,0.6689453
581,152.6875,-6.1875,-238.75,-0.1313477,0.07568359,0.1108398,0.4179688,-0.05371094,0.6689453
582,156.375,-1.0625,-236.4375,-0.06347656,0.03320313,0.1420898,0.3696289,-0.0078125,0.637207
583,160.625,2.5,-232.75,-0.02783203,0.02539063,0.1738281,0.3696289,-0.0078125,0.637207
584,153.5625,-2.5,-227.75,0.0234375,-0.008789063,0.2333984,0.3486328,0.009765625,0.6191406
585,140.5625,-13.4375,-222.5,0.05126953,-0.0009765625,0.2568359,0.3486328,0.009765625,0.6191406
586,127.0625,-25.75,-220.5,0.08300781,-0.04736328,0.2412109,0.3056641,0.03515625,0.605957
587,116.9375,-37.6875,-219.8125,0.09521484,-0.109375,0.1855469,0.3085938,0.05029297,0.5874023
588,110.5,-49.9375,-218.375,0.1547852,-0.1713867,0.1503906,0.3085938,0.05029297,0.5874023
589,107.4375,-59.0625,-214.0625,0.2460938,-0.2641602,0.1582031,0.2763672,0.06835938,0.5717773
590,102,-68.4375,-208.3125,0.2739258,-0.3066406,0.1855469,0.2763672,0.06835938,0.5717773
591,97.625,-77,-200.75,0.3256836,-0.3837891,0.2094727,0.2602539,0.07373047,0.5634766
592,94.9375,-79.0625,-194.4375,0.3618164,-0.418457,0.2807617,0.2578125,0.09130859,0.5400391
593,86.8125,-76.8125,-188.6875,0.3774414,-0.453125,0.3203125,0.2578125,0.09130859,0.5400391
594,76.9375,-72.75,-181.375,0.4331055,-0.5112305,0.3598633,0.2231445,0.09667969,0.5322266
595,62.625,-73.5625,-172.9375,0.4570313,-0.5268555,0.3833008,0.2094727,0.109375,0.5371094
596,42.75,-80.75,-164.6875,0.480957,-0.4882813,0.3164063,0.2094727,0.109375,0.5371094
597,26.625,-90.75,-156.0625,0.4892578,-0.5883789,0.284668,0.1987305,0.1142578,0.5214844
598,16.1875,-101.75,-145.25,0.5966797,-0.6660156,0.2133789,0.1987305,0.1142578,0.5214844
599,11.75,-110.75,-134.1875,0.5688477,-0.7197266,0.1464844,0.1669922,0.1142578,0.5112305
600,10.8125,-117.4375,-124.1875,0.5566406,-0.8046875,0.1186523,0.1669922,0.1245117,0.5214844
601,3.8125,-124,-114.125,0.5966797,-0.793457,0.09082031,0.1669922,0.1245117,0.5214844
602,7.3125,-128.8125,-108,0.7041016,-0.762207,0.1542969,0.1669922,0.1196289,0.5112305
603,-3.5,-136.125,-98.6875,0.6723633,-0.7431641,0.1108398,0.1669922,0.1196289,0.5112305
604,-7,-147.75,-86.8125,0.7475586,-0.7470703,0.1542969,0.1430664,0.1142578,0.5136719
605,-16.1875,-161.625,-74.0625,0.7797852,-0.7275391,0.2016602,0.1508789,0.1171875,0.5161133
606,-27,-168.375,-59.75,0.8510742,-0.6811523,0.3320313,0.1508789,0.1171875,0.5161133
607,-39.9375,-162.6875,-45.0625,0.9228516,-0.6425781,0.4072266,0.1455078,0.1118164,0.5083008
608,-54,-143.375,-28.5625,0.9946289,-0.6118164,0.5297852,0.1508789,0.1015625,0.5214844
609,-64.4375,-114.0625,-8.5625,1.105957,-0.6079102,0.5454102,0.1508789,0.1015625,0.5214844
610,-76.875,-83.3125,13.625,1.169434,-0.5498047,0.628418,0.1669922,0.1171875,0.5322266
611,-85.5625,-49.4375,40.25,1.272949,-0.484375,0.7314453,0.1669922,0.1171875,0.5322266
612,-97.875,-19.5625,67.8125,1.333008,-0.3027344,0.8100586,0.1723633,0.09130859,0.5322266
613,-111.75,2.125,92.375,1.329102,-0.1401367,0.9921875,0.1777344,0.08642578,0.5556641
614,-130.9375,15.25,115.9375,1.344727,0.09082031,1.047363,0.1777344,0.08642578,0.5556641
615,-152.5,22.375,136.875,1.356934,0.2763672,1.126465,0.190918,0.08886719,0.5610352
616,-175.375,33.6875,156.4375,1.404297,0.3999023,1.205566,0.190918,0.08886719,0.5610352
617,-199.875,49.75,178.25,1.436523,0.6088867,1.245117,0.1933594,0.06835938,0.5874023
618,-222.9375,74.1875,201.8125,1.464355,0.7246094,1.249023,0.2231445,0.06054688,0.6030273
619,-253.9375,101.4375,227,1.599609,1.076172,1.173828,0.2231445,0.06054688,0.6030273
620,-261.625,119.5625,240.5,1.376465,0.940918,0.9760742,0.2495117,0.05029297,0.637207
621,-279.125,126.8125,258.875,1.265137,0.9873047,0.7709961,0.2495117,0.05029297,0.637207
622,-286,120.875,277.375,1.197754,1.010742,0.5097656,0.2495117,0.05029297,0.637207
623,-290.1875,99.875,299.75,1.133789,1.006836,0.3637695,0.265625,-0.01806641,0.7138672
624,-297.8125,74.125,322.6875,1.066406,1.061035,0.2211914,0.265625,-0.01806641,0.7138672
625,-301.9375,54.25,342.4375,0.9946289,1.029785,0.09082031,0.265625,-0.01806641,0.7138672
626,-299.125,54.6875,363.6875,0.9267578,0.9912109,-0.08642578,0.2895508,-0.09765625,0.7768555
627,-295.1875,60.4375,381.25,0.7558594,1.04541,-0.2524414,0.2895508,-0.09765625,0.7768555
628,-284.125,67.4375,390.9375,0.6123047,1.091797,-0.390625,0.3217773,-0.1381836,0.7978516
629,-274.9375,77.3125,395.9375,0.4174805,1.172852,-0.4936523,0.3217773,-0.1381836,0.7978516
630,-267.75,87.5625,398.5625,0.1943359,1.242676,-0.6318359,0.3242188,-0.1948242,0.8242188
631,-273.375,97.875,401.125,-0.08349609,1.358398,-0.8217773,0.3242188,-0.2329102,0.8398438
632,-280.6875,103.25,401.875,-0.4418945,1.427734,-1.074707,0.3242188,-0.2329102,0.8398438
634,-287,91.4375,394.9375,-0.8359375,1.524414,-1.299805,0.3457031,-0.2866211,0.8608398
635,-302.3125,65.9375,386.375,-1.198242,1.609375,-1.624023,0.3457031,-0.2866211,0.8608398
636,-328.3125,36.5,372.875,-1.783203,1.671387,-2.054688,0.3188477,-0.3378906,0.8847656
637,-352.125,25.9375,343.5,-2.077637,1.632813,-2.564941,0.3378906,-0.4018555,0.8979492
638,-359.375,49.5,310.25,-2.475586,1.404785,-3.078613,0.3378906,-0.4018555,0.8979492
639,-358.4375,102.4375,263.4375,-2.754395,1.439453,-3.837402,0.3349609,-0.4580078,0.9003906
640,-344.375,148.5,213.0625,-3.056641,1.253906,-4.616211,0.2871094,-0.5249023,0.9086914
641,-323.625,181.0625,168.6875,-3.044922,1.11084,-5.454102,0.2871094,-0.5249023,0.9086914
642,-248.8125,187,113.8125,-3.204102,0.527832,-5.710938,0.2817383,-0.5708008,0.9033203
643,-181.0625,188.9375,72.0625,-3.31543,0.2880859,-6.458008,0.2817383,-0.5708008,0.9033203
644,-80.3125,179.875,47.5,-3.048828,0.009765625,-6.932129,0.2338867,-0.6245117,0.9086914
645,42.625,123.25,16.5625,-3.01709,-0.2060547,-6.82959,0.2016602,-0.6142578,0.9057617
646,164.875,56.125,-3.8125,-3.01709,-0.1362305,-6.32373,0.2016602,-0.6142578,0.9057617
647,297.8125,-17.3125,-26.6875,-2.837891,0.04833984,-5.80957,0.2070313,-0.6142578,0.9296875
648,388.9375,-90.6875,-43.4375,-2.59082,0.581543,-4.884766,0.2070313,-0.6142578,0.9296875
649,446.125,-169.9375,-61.6875,-2.364258,1.053223,-3.956055,0.1962891,-0.5551758,0.9111328
650,458.4375,-253.375,-83.875,-2.097656,1.48584,-3.066895,0.2255859,-0.4990234,0.9165039
651,440.25,-331.3125,-112.5,-1.858887,1.687012,-2.189453,0.2255859,-0.4990234,0.9165039
652,397.125,-389.3125,-149.4375,-1.635742,1.748535,-1.461914,0.2895508,-0.4301758,0.8925781
653,340.25,-420.875,-190.9375,-1.492676,1.659668,-0.9799805,0.3188477,-0.3632813,0.8769531
654,282.9375,-426.8125,-228.5625,-1.353027,1.354492,-0.7822266,0.3188477,-0.3632813,0.8769531
655,247.0625,-406.6875,-263.75,-1.138184,1.145996,-0.8217773,0.3964844,-0.3198242,0.8398438
656,234.625,-367.1875,-296.3125,-0.7958984,0.9296875,-0.8334961,0.3964844,-0.3198242,0.8398438
657,253.6875,-265.625,-319.875,-0.4296875,0.7553711,-0.4658203,0.449707,-0.2792969,0.8032227
658,275.625,-150.625,-315.9375,-0.1870117,0.5703125,-0.390625,0.4526367,-0.2353516,0.769043
659,297.5,-67.875,-303.0625,-0.1113281,0.5893555,-0.3076172,0.4526367,-0.2353516,0.769043
660,308.625,-18.375,-288.8125,-0.06347656,0.5742188,-0.1376953,0.4658203,-0.1767578,0.7426758
661,301.25,-4.5625,-273.8125,-0.04394531,0.6318359,-0.05859375,0.4658203,-0.1767578,0.7426758
662,293.5625,-12.0625,-262.9375,0.06738281,0.7016602,0.1855469,0.4394531,-0.1308594,0.7163086
663,273.1875,-39.4375,-250.125,0.1108398,0.6938477,0.3359375,0.4018555,-0.09472656,0.6977539
664,239.0625,-81.375,-238.25,0.2304688,0.6743164,0.4624023,0.4018555,-0.09472656,0.6977539
665,210.625,-125.9375,-227,0.2861328,0.597168,0.4741211,0.3964844,-0.04882813,0.6743164
666,188.125,-153.5625,-215.75,0.409668,0.4350586,0.4306641,0.3964844,-0.04882813,0.6743164
667,181.75,-156.875,-204.4375,0.5009766,0.3461914,0.4072266,0.3964844,-0.04882813,0.6743164
668,187.3125,-139.3125,-192.4375,0.5966797,0.2495117,0.4111328,0.3857422,-0.005371094,0.6162109
669,196.5,-103.75,-179.625,0.6679688,0.1489258,0.5097656,0.3857422,-0.005371094,0.6162109
670,206.4375,-58.3125,-162.8125,0.7475586,0.1025391,0.7270508,0.3857422,-0.005371094,0.6162109
671,203.5625,-15.4375,-144.5,0.7475586,0.06787109,0.9208984,0.3564453,0.03515625,0.5664063
672,186.5625,14.0625,-125.0625,0.7041016,-0.004882813,1.007813,0.3564453,0.03515625,0.5664063
673,163.8125,27.125,-105.5,0.6918945,-0.03613281,1.007813,0.3457031,0.06591797,0.5424805
674,141.25,26.8125,-87.0625,0.65625,-0.144043,0.9921875,0.3457031,0.06591797,0.5424805
675,122.4375,20.375,-68.3125,0.6323242,-0.2177734,0.9526367,0.340332,0.07373047,0.5292969
676,106.6875,11.5625,-48.4375,0.6484375,-0.3295898,0.9287109,0.3188477,0.08642578,0.5136719
677,97.0625,5.9375,-29.1875,0.6523438,-0.3916016,0.9682617,0.3188477,0.08642578,0.5136719
678,88.125,5.9375,-11.0625,0.6044922,-0.3916016,1.067383,0.3242188,0.08642578,0.4980469
679,73.4375,7.1875,5.875,0.5366211,-0.4106445,1.197754,0.3242188,0.08642578,0.4980469
680,53.625,8.875,21.5,0.4931641,-0.402832,1.272949,0.3217773,0.08886719,0.4873047
681,29.3125,11.5625,36.875,0.4848633,-0.3642578,1.339844,0.3217773,0.08349609,0.4873047
682,6.375,19.5625,52.25,0.5566406,-0.3256836,1.482422,0.3217773,0.08349609,0.4873047
683,-24.8125,35.3125,68.8125,0.5605469,-0.2602539,1.553223,0.3349609,0.1118164,0.4765625
684,-54.125,55.8125,85.25,0.5566406,-0.1982422,1.517578,0.3378906,0.09375,0.5004883
685,-79.625,76.75,100.875,0.5644531,-0.1210938,1.501953,0.3378906,0.09375,0.5004883
686,-106.9375,90.125,115.9375,0.4848633,-0.04736328,1.438965,0.3432617,0.07373047,0.5058594
687,-131.25,94.25,128.5625,0.4291992,-0.0009765625,1.383301,0.3432617,0.07373047,0.5058594
688,-154.0625,87.9375,140,0.3657227,0.09863281,1.284668,0.3588867,0.07373047,0.5112305
689,-178.1875,74.6875,151.0625,0.3139648,0.1835938,1.245117,0.3588867,0.05322266,0.5371094
690,-202.6875,56.9375,162.25,0.3017578,0.2456055,1.169922,0.3588867,0.05322266,0.5371094
691,-222.5,41.375,174.375,0.2739258,0.3188477,1.067383,0.3779297,0.03759766,0.5634766
692,-241.4375,30.4375,185.75,0.1987305,0.3730469,0.9526367,0.3779297,0.03759766,0.5634766
693,-252.125,31.125,197.0625,0.1665039,0.4194336,0.8696289,0.394043,0.009765625,0.5874023
694,-258.25,40.25,207.625,0.09521484,0.4580078,0.7709961,0.3994141,-0.0234375,0.6240234
695,-260.875,52.75,213.625,0.01123047,0.4736328,0.7114258,0.3994141,-0.0234375,0.6240234
696,-260.75,68.9375,218.5625,-0.07568359,0.5043945,0.6796875,0.434082,-0.03857422,0.6582031
697,-264.9375,85.625,221.8125,-0.1391602,0.5429688,0.5654297,0.4394531,-0.07421875,0.6689453
699,-267.1875,97.0625,224.1875,-0.2548828,0.597168,0.5097656,0.4394531,-0.07421875,0.6689453
700,-273.8125,102.4375,226.6875,-0.3305664,0.6435547,0.4189453,0.434082,-0.1230469,0.7084961
701,-282.3125,97.5,230,-0.4379883,0.7094727,0.3164063,0.434082,-0.1230469,0.7084961
702,-291.8125,86.1875,229.8125,-0.5610352,0.7285156,0.1108398,0.4550781,-0.1586914,0.71875
703,-297.75,84.875,224.25,-0.7441406,0.7480469,-0.06689453,0.4472656,-0.199707,0.7480469
704,-300.625,96.1875,214.9375,-0.9233398,0.7905273,-0.2167969,0.4472656,-0.199707,0.7480469
705,-303.8125,114.3125,202.75,-1.066895,0.8173828,-0.4501953,0.4472656,-0.2407227,0.7875977
706,-303.75,133.8125,188.5,-1.146484,0.890625,-0.6083984,0.4472656,-0.2407227,0.7875977
707,-313.5,152.9375,174.3125,-1.317383,0.8833008,-0.8530273,0.4472656,-0.2919922,0.8032227
708,-328.6875,171.5625,156.1875,-1.556152,0.9370117,-1.205078,0.4179688,-0.3354492,0.8320313
709,-343,191.75,130.375,-1.723145,1.00293,-1.655762,0.4179688,-0.3354492,0.8320313
710,-355.25,213.625,96.75,-1.882813,1.041504,-2.133789,0.4018555,-0.3916016,0.8530273
711,-370.1875,227.3125,59.1875,-2.021973,1.080078,-2.73877,0.3886719,-0.4350586,0.8793945
712,-391.6875,222.625,22,-2.133301,1.087891,-3.359375,0.3886719,-0.4350586,0.8793945
713,-408.875,203.6875,-9.3125,-2.101563,1.029785,-4.098145,0.3325195,-0.4912109,0.8769531
714,-399.75,176.6875,-31.625,-2.009766,0.8520508,-4.924316,0.3325195,-0.4912109,0.8769531
715,-361.75,156.5625,-45.375,-1.882813,0.581543,-5.600098,0.3325195,-0.4912109,0.8769531
716,-292.375,150.875,-55.25,-1.774902,0.2998047,-6.058594,0.300293,-0.6088867,0.887207
717,-185.5625,150.5625,-62.75,-1.719238,0.02539063,-6.307617,0.300293,-0.6088867,0.887207
718,-55,145.3125,-64.5625,-1.663574,-0.1635742,-6.288086,0.300293,-0.6088867,0.887207
719,84.625,129.125,-62,-1.552246,-0.1943359,-6.007324,0.300293,-0.6088867,0.887207
720,226.75,98.5625,-58.5,-1.512207,-0.09375,-5.481934,0.2602539,-0.6347656,0.8979492
721,336,55.8125,-52.75,-1.512207,0.1142578,-4.742676,0.230957,-0.6040039,0.8925781
722,414.6875,9.5,-53.4375,-1.437012,0.6318359,-3.873047,0.230957,-0.6040039,0.8925781
723,457.0625,-43.125,-61.625,-1.345215,0.9951172,-3.058594,0.2363281,-0.5375977,0.9057617
724,455.125,-106.75,-75.25,-1.281738,1.342773,-2.272461,0.2363281,-0.5375977,0.9057617
725,423.1875,-170.0625,-98.125,-1.213867,1.474121,-1.651855,0.2602539,-0.4736328,0.8979492
726,371.1875,-219.6875,-128.5625,-1.189941,1.435547,-1.145996,0.2763672,-0.4072266,0.8955078
727,312.125,-243.5625,-163.125,-1.118652,1.257813,-0.8769531,0.2763672,-0.4072266,0.8955078
728,272.8125,-236.4375,-193.6875,-1.010742,0.9257813,-0.8530273,0.3271484,-0.3632813,0.8691406
729,250.0625,-202.0625,-215.8125,-0.84375,0.7016602,-0.9282227,0.3540039,-0.3095703,0.855957
730,257,-138.25,-229.75,-0.5014648,0.612793,-0.8334961,0.3540039,-0.3095703,0.855957
731,284.1875,-17.8125,-229.5625,-0.2666016,0.3188477,-0.6831055,0.3540039,-0.2792969,0.8217773
732,309.3125,79.875,-211.25,-0.2387695,0.3344727,-0.7504883,0.3540039,-0.2792969,0.8217773
733,325.25,135.0625,-191.625,-0.3027344,0.4038086,-0.6875,0.3540039,-0.2304688,0.8217773
734,329.625,145.25,-179.6875,-0.4458008,0.4926758,-0.6674805,0.340332,-0.1816406,0.800293
735,325.75,122,-173.5625,-0.4536133,0.5664063,-0.6518555,0.340332,-0.1816406,0.800293
736,326.625,78.5,-172.5625,-0.4179688,0.612793,-0.5566406,0.300293,-0.1459961,0.7744141
737,324.625,29.0625,-170.9375,-0.2866211,0.597168,-0.4462891,0.300293,-0.1459961,0.7744141
738,327.5625,-10.875,-169.5,-0.1591797,0.6435547,-0.2485352,0.2924805,-0.09228516,0.7612305
739,332.875,-38.4375,-169.8125,-0.07568359,0.7128906,0.0078125,0.2739258,-0.06933594,0.71875
740,334.4375,-54.9375,-170.5625,0.05908203,0.7553711,0.2646484,0.2739258,-0.06933594,0.71875
741,337.9375,-53.125,-170.3125,0.1865234,0.7983398,0.5058594,0.2578125,-0.03369141,0.6923828
742,335.75,-45,-165.25,0.3256836,0.7480469,0.644043,0.265625,0.001953125,0.6611328
743,328.9375,-40.5,-157.8125,0.4052734,0.7094727,0.7314453,0.265625,0.001953125,0.6611328
744,320.5625,-36.625,-148.5625,0.480957,0.5854492,0.8300781,0.2416992,0.04003906,0.6240234
745,309.9375,-26.0625,-139.375,0.5327148,0.5200195,0.9960938,0.2416992,0.04003906,0.6240234
746,293.1875,-19.75,-127.1875,0.6162109,0.4462891,1.094727,0.2255859,0.06591797,0.5874023
747,273,-18.75,-115,0.5727539,0.3769531,1.25293,0.2202148,0.09375,0.5532227
748,251.25,-18.5625,-104.3125,0.5927734,0.2612305,1.45459,0.2202148,0.09375,0.5532227
749,225.3125,-20.125,-94.375,0.5766602,0.1142578,1.63623,0.1962891,0.09912109,0.5161133
750,191.8125,-25.3125,-84.9375,0.5605469,-0.03613281,1.731445,0.1962891,0.09912109,0.5161133
751,153,-38.6875,-74.9375,0.5170898,-0.1982422,1.79834,0.1987305,0.1118164,0.4897461
752,111.9375,-61.625,-64.6875,0.4848633,-0.2832031,1.841797,0.1855469,0.1274414,0.4663086
753,68,-91.1875,-55.5625,0.5087891,-0.4223633,1.818359,0.1855469,0.1274414,0.4663086
754,24.3125,-121.0625,-46.9375,0.5727539,-0.5112305,1.750977,0.1801758,0.1196289,0.4741211
755,-14.25,-144.75,-35.4375,0.6723633,-0.6347656,1.612793,0.190918,0.1274414,0.4638672
756,-48.6875,-157.9375,-18,0.8076172,-0.7236328,1.517578,0.190918,0.1274414,0.4638672
757,-72.6875,-157.125,4.4375,0.8671875,-0.8007813,1.355957,0.190918,0.1245117,0.4609375
758,-89.6875,-143.9375,29.8125,0.9545898,-0.8549805,1.249023,0.190918,0.1245117,0.4609375
759,-101.5,-119.6875,56.625,0.9350586,-0.8359375,1.173828,0.190918,0.1245117,0.4609375
760,-110.6875,-89.25,79.9375,0.875,-0.7548828,1.114746,0.2094727,0.1196289,0.4819336
761,-114.75,-59.25,98.5,0.8115234,-0.7084961,1.055176,0.2094727,0.1196289,0.4819336
762,-121.75,-36.8125,115.3125,0.6958008,-0.6040039,1.039551,0.2094727,0.1196289,0.4819336
764,-133.5,-29.125,130.0625,0.5966797,-0.4916992,1.047363,0.2094727,0.1196289,0.4819336
765,-148.5,-31.25,142.875,0.5566406,-0.4262695,1.027832,0.2363281,0.1040039,0.5161133
766,-165.4375,-35.3125,153.1875,0.4453125,-0.3452148,1.027832,0.265625,0.1040039,0.519043
767,-177.9375,-37.25,162.3125,0.4570313,-0.2832031,0.9960938,0.265625,0.1040039,0.519043
768,-188.1875,-34.875,171.5,0.4414063,-0.2446289,0.9248047,0.265625,0.07617188,0.550293
769,-197.625,-29.625,182.6875,0.425293,-0.1635742,0.9526367,0.265625,0.07617188,0.550293
770,-204.125,-22.5625,194.0625,0.3935547,-0.08251953,0.9052734,0.3056641,0.05810547,0.5717773
771,-212.5,-13.5,205.625,0.3774414,0.01367188,0.8974609,0.3217773,0.03271484,0.5952148
772,-220.5625,-7.4375,217.125,0.3535156,0.09472656,0.8852539,0.3217773,0.03271484,0.5952148
773,-227.9375,-4.6875,229.8125,0.2939453,0.222168,0.8579102,0.340332,0.01953125,0.6240234
774,-234.0625,-1.4375,242.4375,0.2700195,0.3266602,0.8222656,0.375,-0.01025391,0.6401367
775,-240.3125,1.625,255,0.1943359,0.4619141,0.8100586,0.375,-0.01025391,0.6401367
776,-247.4375,9.6875,264.125,0.09521484,0.6049805,0.8022461,0.3857422,-0.05371094,0.6635742
777,-250.875,25.75,270.625,0.007324219,0.6899414,0.8022461,0.3857422,-0.05371094,0.6635742
778,-258.75,43.5625,275.375,-0.09130859,0.7631836,0.7749023,0.4018555,-0.08203125,0.6923828
779,-269.625,59.8125,279.375,-0.175293,0.8251953,0.6796875,0.4418945,-0.1176758,0.71875
780,-281.875,79.0625,283.625,-0.3066406,0.8330078,0.5532227,0.4418945,-0.1176758,0.71875
781,-294.25,95.625,285.6875,-0.5214844,0.9296875,0.34375,0.434082,-0.1689453,0.7348633
782,-303.875,108.5625,281.875,-0.7084961,1.006836,0.1420898,0.434082,-0.1689453,0.7348633
783,-313,124.5,272.5625,-0.9233398,1.053223,-0.01513672,0.4550781,-0.2075195,0.7612305
784,-319.5625,143.75,260,-1.050781,1.14209,-0.2368164,0.4633789,-0.2558594,0.7875977
785,-322.5625,164.9375,246.8125,-1.14209,1.25,-0.4106445,0.4633789,-0.2558594,0.7875977
786,-328.75,180.5,228.4375,-1.269531,1.366211,-0.5488281,0.4257813,-0.3046875,0.8266602
787,-337.375,188.1875,203.4375,-1.46875,1.439453,-0.8017578,0.4179688,-0.3583984,0.8374023
788,-354.5,201.3125,174.9375,-1.679688,1.566895,-1.090332,0.4179688,-0.3583984,0.8374023
789,-375.75,214.6875,142.3125,-1.838867,1.543945,-1.529297,0.3994141,-0.4121094,0.8530273
790,-390.625,220,106.5625,-1.93457,1.497559,-2.023438,0.3994141,-0.4121094,0.8530273
791,-385.75,217.5625,67.3125,-1.882813,1.431641,-2.434082,0.3510742,-0.480957,0.8769531
792,-381.5,203.125,37.375,-1.870605,1.32373,-2.873047,0.3325195,-0.5400391,0.8955078
793,-382.125,173.25,14.0625,-1.82666,1.265625,-3.268066,0.3325195,-0.5400391,0.8955078
794,-370.5,140.75,-8.125,-1.834961,1.230957,-3.604492,0.2871094,-0.5859375,0.9033203
795,-350.9375,113.375,-31.6875,-1.890625,1.199707,-3.975586,0.2871094,-0.5859375,0.9033203
796,-327,93.8125,-55.375,-1.84668,1.130371,-4.363281,0.2685547,-0.6293945,0.8955078
797,-291.625,79.25,-76.5,-1.739258,0.9912109,-4.762207,0.2739258,-0.6806641,0.8901367
798,-233.6875,76.1875,-90.625,-1.583984,0.7519531,-5.098145,0.2739258,-0.6806641,0.8901367
799,-156.0625,84.1875,-97.75,-1.44873,0.5390625,-5.244629,0.2416992,-0.706543,0.8740234
800,-61.0625,96.9375,-98.8125,-1.281738,0.3769531,-5.26416,0.2524414,-0.7319336,0.8637695
801,44.125,104.375,-93.75,-1.189941,0.2763672,-5.086426,0.2524414,-0.7319336,0.8637695
802,153.75,99.125,-87.0625,-1.054688,0.3422852,-4.833496,0.2441406,-0.7368164,0.8662109
803,256,73.5,-81.25,-1.026855,0.4658203,-4.398926,0.2441406,-0.7368164,0.8662109
804,331.125,30.5625,-72.875,-0.9750977,0.612793,-3.857422,0.2441406,-0.7368164,0.8662109
805,377.6875,-25.4375,-69.625,-0.9272461,0.956543,-3.244629,0.2441406,-0.6499023,0.9033203
806,401.5,-88.9375,-72.5625,-0.8676758,1.253906,-2.699219,0.2441406,-0.6499023,0.9033203
807,395.0625,-146.75,-83.8125,-0.8515625,1.48584,-2.086426,0.2441406,-0.6499023,0.9033203
808,365.1875,-196.1875,-105.6875,-0.8676758,1.52832,-1.544922,0.2441406,-0.6499023,0.9033203
809,321.75,-228.4375,-132.75,-0.871582,1.443359,-1.23291,0.2788086,-0.534668,0.887207
810,282,-233.0625,-160.1875,-0.8476563,1.269531,-1.149902,0.3349609,-0.4863281,0.8901367
811,258.25,-200.75,-182.5625,-0.7802734,1.049316,-1.165527,0.3349609,-0.4863281,0.8901367
812,254.375,-136.875,-196.8125,-0.6289063,0.8754883,-1.169434,0.3540039,-0.4428711,0.8740234
813,266.1875,-50.375,-204.875,-0.5693359,0.7670898,-1.153809,0.3540039,-0.4428711,0.8740234
814,287,58.125,-202.25,-0.4257813,0.5932617,-1.062988,0.3618164,-0.4018555,0.855957
815,301,151.625,-188.9375,-0.5292969,0.5625,-1.114258,0.3642578,-0.3583984,0.8452148
816,312.8125,203.5625,-174.625,-0.6166992,0.5507813,-1.165527,0.3642578,-0.3583984,0.8452148
817,327.8125,217.9375,-164.75,-0.668457,0.5776367,-1.153809,0.3295898,-0.3071289,0.8481445
818,341.0625,203.125,-157.375,-0.6645508,0.6552734,-1.046875,0.3085938,-0.2509766,0.8481445
819,349.5625,163.3125,-152.3125,-0.6767578,0.7207031,-0.9086914,0.3085938,-0.2509766,0.8481445
820,358.0625,104.625,-150.4375,-0.5932617,0.7670898,-0.746582,0.2895508,-0.2124023,0.8266602
821,371.375,52.1875,-150.5625,-0.4697266,0.8017578,-0.4697266,0.2895508,-0.2124023,0.8266602
822,378.5,9.375,-151.1875,-0.3461914,0.871582,-0.1694336,0.2524414,-0.1665039,0.8056641
823,387.6875,-22.875,-152.625,-0.1791992,0.890625,0.08300781,0.265625,-0.1049805,0.7822266
824,388.9375,-51.75,-151.5625,-0.03173828,0.871582,0.3320313,0.265625,-0.1049805,0.7822266
825,383.75,-69.75,-150.125,0.1147461,0.90625,0.6049805,0.2441406,-0.06689453,0.7480469
826,366.75,-75.5,-150.5,0.2182617,0.890625,0.8300781,0.2441406,-0.06689453,0.7480469
827,344.6875,-71.4375,-149.375,0.3300781,0.8173828,0.9248047,0.2338867,-0.03857422,0.6977539
829,324.1875,-51,-145.375,0.4692383,0.6474609,1.019531,0.2470703,0.01220703,0.6767578
830,306.125,-17.9375,-135.5625,0.6401367,0.527832,1.09082,0.2470703,0.01220703,0.6767578
831,285.0625,15.875,-122.5625,0.6723633,0.4116211,1.169922,0.2231445,0.03271484,0.6347656
832,256.5,36.4375,-107.75,0.6640625,0.2651367,1.138184,0.2148438,0.06054688,0.6083984
833,236.1875,47.1875,-91.25,0.6601563,0.09472656,1.102539,0.2148438,0.06054688,0.6083984
834,217.5625,48.625,-75.4375,0.5927734,-0.05908203,1.075195,0.2041016,0.07617188,0.5795898
835,199.375,40.4375,-59.25,0.5966797,-0.1826172,1.083008,0.2041016,0.07617188,0.5795898
836,180.4375,23.9375,-45,0.4931641,-0.2485352,1.086914,0.1855469,0.08886719,0.5454102
837,158.25,1.375,-33.125,0.4453125,-0.3564453,1.189941,0.1831055,0.109375,0.5400391
838,133.25,-21.6875,-23.4375,0.4291992,-0.3837891,1.260742,0.1831055,0.109375,0.5400391
839,105.375,-41.4375,-14.8125,0.4570313,-0.4648438,1.34375,0.190918,0.1142578,0.5112305
840,74.8125,-57.9375,-5.4375,0.4848633,-0.5419922,1.411133,0.190918,0.1142578,0.5112305
841,43.8125,-69.125,6.1875,0.5087891,-0.5615234,1.415039,0.1801758,0.1142578,0.5004883
842,13.3125,-70.375,18.0625,0.5327148,-0.6425781,1.359863,0.1884766,0.1245117,0.4951172
843,-12,-59.25,30.375,0.5927734,-0.6772461,1.320313,0.1884766,0.1245117,0.4951172
844,-34.0625,-38.3125,44.0625,0.628418,-0.7700195,1.249023,0.1884766,0.1118164,0.4897461
845,-55.125,-15.375,58.5,0.65625,-0.7314453,1.146484,0.1831055,0.109375,0.4980469
846,-70.4375,7.1875,74.4375,0.6679688,-0.847168,1.019531,0.1831055,0.109375,0.4980469
847,-80.625,28.9375,91.9375,0.65625,-0.8320313,0.8735352,0.2124023,0.1142578,0.5029297
848,-87.375,46.5625,108.375,0.6044922,-0.8164063,0.7548828,0.2124023,0.1142578,0.5029297
849,-92.75,59.0625,123.0625,0.5566406,-0.777832,0.6879883,0.2124023,0.1040039,0.5268555
850,-98.125,66.9375,136.9375,0.480957,-0.7661133,0.6796875,0.2231445,0.08886719,0.5400391
851,-105.6875,70.4375,148.625,0.4492188,-0.6772461,0.7231445,0.2231445,0.08886719,0.5400391
852,-114.6875,71.375,158.4375,0.3896484,-0.6040039,0.7075195,0.2231445,0.08886719,0.5400391
853,-124.625,72.6875,166.875,0.3457031,-0.5458984,0.7548828,0.2231445,0.08886719,0.5400391
854,-132,74.6875,173,0.2783203,-0.5576172,0.7392578,0.2416992,0.07373047,0.5610352
855,-138.625,77.6875,179,0.1987305,-0.4379883,0.7231445,0.2416992,0.07373047,0.5610352
856,-145.6875,81.9375,185.6875,0.1987305,-0.4301758,0.7392578,0.2416992,0.07373047,0.5610352
857,-153.3125,83.875,194.0625,0.1269531,-0.3876953,0.7587891,0.2817383,0.04785156,0.5952148
858,-163,85.75,201.25,0.007324219,-0.2949219,0.7944336,0.2817383,0.04785156,0.5952148
859,-175.625,88.9375,206.5,-0.09960938,-0.1635742,0.8300781,0.2949219,0.02978516,0.6137695
860,-189,93.1875,208.375,-0.1713867,-0.109375,0.8618164,0.3139648,0.02490234,0.6479492
861,-202.8125,97.375,207.5,-0.2944336,-0.01269531,0.8774414,0.3139648,0.02490234,0.6479492
862,-217.875,102,204.5,-0.3823242,0.03710938,0.8618164,0.3188477,-0.0078125,0.6665039
863,-231.375,105.875,201.4375,-0.4101563,0.1298828,0.8339844,0.3271484,-0.02587891,0.6953125
864,-243.25,107.75,199.5625,-0.4814453,0.1762695,0.7827148,0.3271484,-0.02587891,0.6953125
865,-254,107.25,198.6875,-0.5332031,0.2724609,0.7749023,0.3510742,-0.06396484,0.7055664
866,-265.6875,105.3125,196.4375,-0.6489258,0.3266602,0.6958008,0.3510742,-0.06396484,0.7055664
867,-277.75,101.875,190.8125,-0.7441406,0.512207,0.6679688,0.3378906,-0.1025391,0.7294922
868,-290.6875,96.6875,182.25,-0.8476563,0.5893555,0.5571289,0.3457031,-0.1459961,0.7661133
869,-308.75,84.875,174.8125,-0.9272461,0.6591797,0.4389648,0.3457031,-0.1459961,0.7661133
870,-326.0625,65.5,167.625,-1.08252,0.7128906,0.2568359,0.3486328,-0.1713867,0.7875977
871,-336.375,46.1875,159.0625,-1.178223,0.7519531,0.05517578,0.3486328,-0.1713867,0.7875977
872,-341.8125,33.8125,144.3125,-1.261719,0.90625,-0.03125,0.3271484,-0.2124023,0.8188477
873,-352.75,37.875,128.5,-1.317383,0.956543,-0.1694336,0.3510742,-0.2661133,0.8295898
874,-366.9375,46.875,111.375,-1.38916,1.006836,-0.418457,0.3510742,-0.2661133,0.8295898
875,-375.5625,58.75,95,-1.365234,1.068359,-0.6318359,0.3486328,-0.3173828,0.8427734
876,-379.9375,76.1875,78.4375,-1.380859,1.126465,-0.8769531,0.3188477,-0.3686523,0.8691406
877,-389.5625,92.625,63.0625,-1.396973,1.18457,-1.125977,0.3188477,-0.3686523,0.8691406
878,-401.4375,104.5625,46.5625,-1.456543,1.300293,-1.481934,0.3325195,-0.4121094,0.8847656
879,-415.4375,112.0625,26.875,-1.480469,1.32373,-1.77832,0.3325195,-0.4121094,0.8847656
880,-424,121.625,5.4375,-1.48877,1.331543,-2.090332,0.3056641,-0.4707031,0.887207
881,-433.9375,129,-16.4375,-1.480469,1.38916,-2.406738,0.2763672,-0.5400391,0.8901367
882,-449.8125,132.375,-36.125,-1.472656,1.381348,-2.734863,0.2763672,-0.5400391,0.8901367
883,-459.75,134.0625,-54.125,-1.380859,1.338867,-3.090332,0.2739258,-0.5834961,0.8955078
884,-450.1875,137.5,-68.25,-1.341309,1.285156,-3.363281,0.2739258,-0.5834961,0.8955078
885,-419.875,145.3125,-79,-1.198242,1.211426,-3.580566,0.2441406,-0.6499023,0.8823242
886,-372.9375,159.8125,-86.5625,-1.098633,1.103516,-3.730957,0.2255859,-0.7163086,0.8637695
887,-304.375,166.5625,-90.6875,-0.9433594,0.940918,-3.888672,0.2255859,-0.7163086,0.8637695
888,-219.75,159.875,-86.3125,-0.8676758,0.6860352,-3.924316,0.2202148,-0.7573242,0.8505859
889,-124.1875,147.6875,-77.5,-0.7919922,0.4619141,-3.92041,0.1987305,-0.777832,0.8398438
890,-34.75,133.25,-73.9375,-0.7163086,0.597168,-3.908691,0.1987305,-0.777832,0.8398438
891,78.4375,121.625,-66.9375,-0.6645508,0.4736328,-3.454102,0.1855469,-0.7905273,0.8452148
892,147.875,99,-66.1875,-0.7602539,0.5004883,-3.078613,0.1855469,-0.7905273,0.8452148
894,195.6875,71.5,-64.1875,-0.7363281,0.7167969,-2.659668,0.1884766,-0.7856445,0.8530273
895,230.6875,32.5625,-66.75,-0.7045898,0.8676758,-2.256348,0.1748047,-0.7524414,0.8530273
896,247.5,-12,-71.1875,-0.7202148,0.9833984,-1.797852,0.1748047,-0.7524414,0.8530273
897,241.25,-53.75,-79.5,-0.7124023,1.080078,-1.434082,0.1748047,-0.7524414,0.8530273
898,218.0625,-83.375,-93.5,-0.7045898,1.192383,-1.086426,0.1748047,-0.7524414,0.8530273
899,186.25,-97.0625,-113.3125,-0.7124023,1.20752,-0.8925781,0.1933594,-0.6782227,0.8847656
900,156.375,-97.125,-133.5,-0.7285156,1.107422,-0.7978516,0.1933594,-0.6782227,0.8847656
901,132.875,-84.875,-148.6875,-0.7006836,0.8833008,-0.8491211,0.1933594,-0.6782227,0.8847656
902,112.4375,-54.125,-157.3125,-0.6367188,0.7631836,-0.9799805,0.2524414,-0.6269531,0.8901367
903,106.875,-10.125,-161.6875,-0.5292969,0.6821289,-1.090332,0.2524414,-0.6269531,0.8901367
904,113.1875,40.5,-161.9375,-0.4619141,0.6240234,-1.228516,0.2524414,-0.6142578,0.8901367
905,128.5625,87.0625,-157.4375,-0.421875,0.5390625,-1.355469,0.2602539,-0.5986328,0.8901367
906,144.0625,124.4375,-147.625,-0.4179688,0.4501953,-1.461914,0.2602539,-0.5986328,0.8901367
907,162.5,148.8125,-137.6875,-0.449707,0.4736328,-1.588379,0.2709961,-0.5683594,0.8979492
908,182.6875,160.5,-130.25,-0.4936523,0.4697266,-1.683105,0.2285156,-0.534668,0.8925781
909,204.1875,160.75,-126.375,-0.5332031,0.512207,-1.73877,0.2285156,-0.534668,0.8925781
910,225.1875,146.8125,-125.5625,-0.5610352,0.5742188,-1.710938,0.2255859,-0.5043945,0.8901367
911,237.3125,115.3125,-128,-0.5849609,0.612793,-1.699219,0.2255859,-0.5043945,0.8901367
912,250.625,78.6875,-132.375,-0.5214844,0.6049805,-1.707031,0.2070313,-0.4707031,0.9135742
913,268.875,42.4375,-137.875,-0.4736328,0.6435547,-1.695313,0.1933594,-0.4477539,0.8925781
914,290.4375,8.1875,-143.625,-0.3623047,0.6552734,-1.616211,0.1933594,-0.4477539,0.8925781
915,312.875,-19.625,-149.0625,-0.2426758,0.6318359,-1.525391,0.2016602,-0.3916016,0.8955078
916,336.8125,-29.75,-151.5,-0.1274414,0.6357422,-1.363281,0.2016602,-0.3916016,0.8955078
917,360.125,-21.9375,-149.9375,-0.01611328,0.7094727,-1.125977,0.190918,-0.340332,0.887207
918,376.9375,-5.0625,-145.1875,0.03955078,0.7441406,-0.8730469,0.1987305,-0.3046875,0.8637695
919,385.5,11.6875,-138.625,0.09082031,0.7631836,-0.6914063,0.1987305,-0.3046875,0.8637695
920,391.625,25.9375,-131.125,0.1665039,0.7866211,-0.5332031,0.2016602,-0.2485352,0.8530273
921,398,36.625,-123.125,0.2026367,0.8134766,-0.3671875,0.1884766,-0.2021484,0.8374023
922,399.1875,40.375,-113.4375,0.2104492,0.8056641,-0.2602539,0.1884766,-0.2021484,0.8374023
923,402.0625,41.375,-102.6875,0.2900391,0.7749023,-0.1616211,0.1831055,-0.1538086,0.7924805
924,411.375,42.6875,-91.75,0.3378906,0.7402344,-0.05859375,0.1831055,-0.1538086,0.7924805
925,421.875,43.1875,-80.625,0.3217773,0.6782227,0.0078125,0.1694336,-0.08740234,0.784668
926,428.3125,39.8125,-69.625,0.3535156,0.6318359,0.1069336,0.1616211,-0.05664063,0.7451172
927,431.3125,35.5625,-59.1875,0.3256836,0.5625,0.2451172,0.1616211,-0.05664063,0.7451172
928,434.6875,28.75,-48.875,0.3061523,0.5043945,0.3754883,0.1640625,-0.005371094,0.6977539
929,426.9375,17.625,-43.0625,0.2304688,0.4658203,0.5058594,0.1640625,-0.005371094,0.6977539
930,407.625,-1.5,-40.8125,0.2143555,0.3574219,0.5810547,0.1533203,0.03759766,0.6582031
931,385.3125,-19.4375,-40.4375,0.1748047,0.1953125,0.6484375,0.1484375,0.04785156,0.6162109
932,361.75,-31.8125,-38.6875,0.2382813,0.07568359,0.7270508,0.1484375,0.04785156,0.6162109
933,330.375,-44.5,-40.125,0.2822266,-0.05126953,0.7548828,0.1533203,0.08886719,0.5634766
934,300.75,-51.875,-41.875,0.3378906,-0.1713867,0.7709961,0.1508789,0.1040039,0.5268555
935,269.4375,-50.6875,-42.75,0.409668,-0.2910156,0.7983398,0.1508789,0.1040039,0.5268555
936,235.75,-44.4375,-39.5625,0.4692383,-0.4106445,0.7905273,0.1455078,0.1196289,0.4897461
937,211.1875,-29.5625,-32,0.5366211,-0.519043,0.7587891,0.1455078,0.1196289,0.4897461
938,191.6875,-11.3125,-22.6875,0.5527344,-0.6269531,0.6796875,0.1484375,0.1376953,0.4609375
939,179.5625,10.875,-11.375,0.6162109,-0.7006836,0.6362305,0.1430664,0.1376953,0.4423828
940,175.6875,39.375,0.8125,0.6206055,-0.7739258,0.644043,0.1430664,0.1376953,0.4423828
941,171.3125,69.1875,12.25,0.6362305,-0.7895508,0.6958008,0.1401367,0.152832,0.4111328
942,162.3125,94.875,26.625,0.6484375,-0.7973633,0.7231445,0.1401367,0.152832,0.4111328
943,146.25,117.0625,39.8125,0.6601563,-0.7739258,0.7944336,0.1430664,0.1577148,0.3901367
944,127.5625,142.25,50.5625,0.6323242,-0.7509766,0.8852539,0.1430664,0.1577148,0.3901367
945,108.9375,164.625,61.125,0.5844727,-0.7895508,0.9326172,0.1430664,0.1577148,0.3901367
946,90.875,186.4375,71.4375,0.5288086,-0.762207,0.9326172,0.1484375,0.1630859,0.3476563
947,75.5625,206.25,80.375,0.4614258,-0.7314453,0.9326172,0.1484375,0.1630859,0.3476563
948,61.5625,222.6875,89.3125,0.4052734,-0.7548828,0.9326172,0.1484375,0.1630859,0.3476563
949,48.3125,235.75,98.75,0.3300781,-0.7353516,0.9208984,0.15625,0.1606445,0.3398438
950,35,242.1875,105.6875,0.2900391,-0.7353516,0.9326172,0.15625,0.1606445,0.3398438
951,17.75,241.6875,112.8125,0.2304688,-0.7084961,0.8579102,0.1777344,0.1679688,0.3266602
952,1,235.6875,119.5,0.1748047,-0.6660156,0.8261719,0.1884766,0.1630859,0.3295898
953,-15.25,225.3125,126.3125,0.1748047,-0.6269531,0.7983398,0.1884766,0.1630859,0.3295898
954,-31,211.0625,133.5625,0.1787109,-0.6308594,0.7905273,0.1884766,0.1503906,0.3344727
955,-45.875,197.625,139.1875,0.1748047,-0.5693359,0.7709961,0.1884766,0.1503906,0.3344727
956,-61.6875,189,142.4375,0.1943359,-0.4418945,0.7749023,0.2124023,0.1606445,0.3344727
957,-78.25,179.5,142.6875,0.1665039,-0.3798828,0.7392578,0.2285156,0.1503906,0.3530273
959,-95,170.25,142.125,0.1665039,-0.3413086,0.699707,0.2285156,0.1503906,0.3530273
960,-110.6875,163.625,143.875,0.3061523,-0.3413086,0.6245117,0.2338867,0.1503906,0.3662109
961,-130.25,159.3125,151.3125,0.4052734,-0.2524414,0.5771484,0.2338867,0.1503906,0.3662109
962,-147,150.5625,162,0.4331055,-0.2177734,0.4702148,0.2709961,0.1376953,0.3847656
963,-162.125,138.5625,173.9375,0.4731445,-0.1713867,0.3754883,0.2709961,0.1245117,0.4111328
964,-171,123.1875,187.1875,0.480957,-0.05517578,0.3242188,0.2709961,0.1245117,0.4111328
965,-177.125,108.4375,198.625,0.4213867,-0.03613281,0.2607422,0.2978516,0.1171875,0.4267578
966,-181.1875,97.4375,209.5625,0.3818359,0.04833984,0.2211914,0.3188477,0.1040039,0.4663086
967,-181.875,91.9375,218.5,0.3857422,0.08349609,0.1621094,0.3188477,0.1040039,0.4663086
968,-183,88.3125,228.0625,0.3735352,0.1220703,0.1816406,0.3271484,0.08105469,0.4848633
969,-187.375,84.4375,238.875,0.3896484,0.21875,0.1855469,0.3271484,0.08105469,0.4848633
970,-192.75,81.25,249.9375,0.4052734,0.3037109,0.2250977,0.3671875,0.07617188,0.5083008
971,-199.8125,79.6875,259.75,0.3774414,0.4350586,0.2568359,0.3857422,0.04296875,0.5371094
972,-208.875,78.75,269.4375,0.3579102,0.527832,0.2172852,0.3857422,0.04296875,0.5371094
973,-213.875,78.375,279.6875,0.3896484,0.597168,0.2016602,0.3994141,0.01953125,0.5634766
974,-217.3125,76.625,291.8125,0.4213867,0.6821289,0.2250977,0.3994141,0.01953125,0.5634766
975,-220.625,72.75,306.8125,0.4052734,0.7285156,0.1621094,0.434082,-0.005371094,0.5874023
976,-225.0625,64.5,323.3125,0.4174805,0.8330078,0.1738281,0.4365234,-0.03613281,0.6108398
977,-229.75,52.8125,339.5625,0.3857422,0.9296875,0.1816406,0.4365234,-0.03613281,0.6108398
978,-233.0625,41.25,352.4375,0.3100586,1.061035,0.1464844,0.4711914,-0.07714844,0.6425781
979,-230.8125,25.75,356.0625,0.1665039,1.18457,0.1660156,0.4980469,-0.1176758,0.6689453
980,-230.9375,19.1875,357.0625,0.2382813,1.265625,0.2172852,0.4980469,-0.1176758,0.6689453
981,-235.625,16.5,365.6875,0.2700195,1.29248,0.2211914,0.5112305,-0.1513672,0.6743164
982,-242.8125,7.125,382.4375,0.2861328,1.358398,0.2529297,0.5112305,-0.1513672,0.6743164
983,-245.875,-4.6875,403.5625,0.222168,1.458984,0.2373047,0.5405273,-0.2177734,0.6953125
984,-246.3125,-9.0625,422.875,0.1748047,1.590332,0.2646484,0.5673828,-0.269043,0.7163086
985,-245.75,-10.9375,437.0625,-0.01171875,1.76416,0.2768555,0.5673828,-0.269043,0.7163086
986,-243.625,-3.25,446.625,-0.1113281,1.918457,0.3793945,0.5751953,-0.3300781,0.7163086
987,-242.875,11.125,457.125,-0.2109375,2.057617,0.4072266,0.5751953,-0.3300781,0.7163086
988,-249.3125,22.1875,464.8125,-0.3422852,2.277832,0.3754883,0.5942383,-0.3916016,0.7373047
989,-252.9375,28.0625,467.1875,-0.5371094,2.444336,0.3793945,0.5942383,-0.3916016,0.7373047
990,-261.375,38,466.25,-0.7402344,2.648926,0.371582,0.5942383,-0.3916016,0.7373047
991,-273.9375,50.9375,462.1875,-1.006836,2.884766,0.3476563,0.5805664,-0.5170898,0.7504883
992,-286.375,56.6875,451.375,-1.22998,3.07373,0.2685547,0.5805664,-0.5170898,0.7504883
993,-301.25,55.1875,438.5,-1.416992,3.197754,0.1777344,0.5805664,-0.5170898,0.7504883
994,-316.25,52.8125,424.3125,-1.620117,3.305664,0.07128906,0.543457,-0.6577148,0.7583008
995,-335.625,50.0625,411,-1.834961,3.421875,-0.0546875,0.543457,-0.6577148,0.7583008
996,-348.625,44.125,398.25,-2.117188,3.47168,-0.2880859,0.5195313,-0.7319336,0.7348633
997,-358.625,32.6875,381.5,-2.491699,3.464355,-0.4736328,0.4897461,-0.8110352,0.7348633
998,-359.9375,15.8125,354.375,-2.885742,3.510742,-0.7226563,0.4897461,-0.8110352,0.7348633
999,-351.375,2.125,313.9375,-3.15625,3.467773,-0.8769531,0.4443359,-0.8623047,0.6977539
1000,-338.875,-3.4375,269.1875,-3.39502,3.282715,-0.9916992,0.4443359,-0.8623047,0.6977539
1001,-330,-7.6875,226.375,-3.61377,3.155273,-1.086426,0.4233398,-0.9389648,0.6821289
1002,-325.5,-7.5625,182.5,-3.617676,2.961914,-1.216797,0.3994141,-0.9799805,0.6479492
1003,-315.25,-2.375,134.9375,-3.836914,2.857422,-1.280273,0.3994141,-0.9799805,0.6479492
1004,-298.9375,17.8125,79.625,-3.86084,2.726074,-1.371094,0.3911133,-1.016113,0.6191406
1005,-268.375,50.5625,21.375,-3.809082,2.606445,-1.469727,0.3911133,-1.016113,0.6191406
1006,-228.625,94.3125,-38.125,-3.685547,2.428711,-1.548828,0.3725586,-1.05957,0.5844727
1007,-178.5,142.125,-95.6875,-3.538086,2.250977,-1.608398,0.3696289,-1.064453,0.5664063
1008,-129.5625,190.25,-147.25,-3.247559,2.185059,-1.612305,0.3696289,-1.064453,0.5664063
1009,-74.625,237.1875,-196.625,-2.901367,2.081055,-1.572754,0.3886719,-1.066895,0.5478516
1010,-21.3125,275.8125,-234.25,-2.53125,2.022949,-1.505371,0.394043,-1.074707,0.534668
1011,23.5,303.125,-259,-2.165039,1.960938,-1.351074,0.394043,-1.074707,0.534668
1012,66.0625,319.4375,-273.625,-1.850586,1.907227,-1.212891,0.4311523,-1.049316,0.5766602
1013,105.6875,322.1875,-282.3125,-1.600098,1.945801,-1.050781,0.4311523,-1.049316,0.5766602
1014,137.5,307.375,-286.75,-1.424805,1.907227,-0.8886719,0.434082,-1.018555,0.5952148
1015,168.125,278.6875,-285.9375,-1.245605,1.914551,-0.746582,0.4443359,-0.9902344,0.6347656
1016,184.5,241.625,-282,-1.106445,1.899414,-0.6240234,0.4443359,-0.9902344,0.6347656
1017,191.9375,197.6875,-275.1875,-0.9873047,1.92627,-0.5014648,0.4394531,-0.9443359,0.6665039
1018,195.5,152.1875,-268.3125,-0.9272461,1.907227,-0.331543,0.4394531,-0.9443359,0.6665039
1019,190.9375,108.75,-263,-0.8754883,1.907227,-0.1850586,0.4794922,-0.9082031,0.6875
1020,176.375,65.3125,-256.875,-0.8994141,1.864746,-0.07861328,0.4926758,-0.8676758,0.7109375
1021,160.125,26.375,-256.25,-0.8994141,1.825684,-0.06298828,0.4926758,-0.8676758,0.7109375
1022,145.0625,-7.3125,-259.625,-0.8320313,1.787109,0.0078125,0.5141602,-0.8164063,0.7163086
1024,133.5,-32.6875,-265,-0.8359375,1.779297,-0.01513672,0.5458984,-0.7856445,0.7163086
1025,122.8125,-48.4375,-269.3125,-0.8198242,1.729492,0,0.5458984,-0.7856445,0.7163086
1026,124,-52.25,-271.6875,-0.7958984,1.651855,-0.01513672,0.5488281,-0.7421875,0.7163086
1027,134.125,-41.3125,-273.4375,-0.7641602,1.566895,-0.05078125,0.5488281,-0.7421875,0.7163086
1028,146.5,-19.6875,-272.4375,-0.7880859,1.481934,-0.07470703,0.5727539,-0.7011719,0.7109375
1029,164.375,6.25,-266.9375,-0.7802734,1.439453,-0.1298828,0.6020508,-0.6601563,0.7084961
1030,184.75,29.375,-263.625,-0.7802734,1.38916,-0.1577148,0.6020508,-0.6601563,0.7084961
1031,199.0625,48.5625,-264.5,-0.7402344,1.435547,-0.0390625,0.5966797,-0.6220703,0.7216797
1032,201.375,58.0625,-264.25,-0.7719727,1.443359,-0.0390625,0.5966797,-0.6220703,0.7216797
1033,194.9375,59.1875,-264.5,-0.7763672,1.412598,-0.0546875,0.6074219,-0.5756836,0.71875
1034,184.1875,55.5625,-264.6875,-0.7246094,1.404785,-0.07080078,0.6098633,-0.5400391,0.7348633
1035,172.0625,45.875,-267.8125,-0.7163086,1.327637,-0.1142578,0.6098633,-0.5400391,0.7348633
1036,158.75,34.6875,-268.375,-0.6767578,1.269531,-0.1103516,0.5996094,-0.4912109,0.7348633
1037,147.875,23.625,-267.875,-0.6166992,1.180664,-0.1811523,0.5996094,-0.4912109,0.7348633
1038,141,11.0625,-265,-0.5371094,1.149902,-0.2167969,0.5996094,-0.4912109,0.7348633
1039,134.4375,3.0625,-259.1875,-0.4658203,1.076172,-0.2641602,0.6049805,-0.4145508,0.71875
1040,131.625,-3.125,-252.375,-0.4257813,0.9990234,-0.3354492,0.6049805,-0.4145508,0.71875
1041,130.0625,-8.1875,-247.1875,-0.3979492,1.006836,-0.3276367,0.6049805,-0.4145508,0.71875
1042,126.875,-8.125,-243.3125,-0.3662109,0.9526367,-0.3276367,0.5942383,-0.340332,0.7163086
1043,123.875,-7.4375,-238.75,-0.3583984,0.8945313,-0.359375,0.5942383,-0.340332,0.7163086
1044,121.5625,-4.375,-234.25,-0.2788086,0.8754883,-0.3554688,0.5859375,-0.2993164,0.71875
1045,126.625,-1.25,-229.125,-0.246582,0.8408203,-0.4262695,0.5859375,-0.2993164,0.71875
1046,134.25,-3.25,-225.75,-0.21875,0.7519531,-0.4580078,0.5727539,-0.2817383,0.6953125
1047,140.8125,-10.375,-222.6875,-0.1791992,0.7631836,-0.5131836,0.5751953,-0.2509766,0.6899414
1048,146.6875,-18.375,-230.1875,-0.09570313,0.871582,-0.5292969,0.5751953,-0.2509766,0.6899414
1049,169,-19.5,-249.1875,0.02734375,0.9296875,-0.4384766,0.5488281,-0.2075195,0.6845703
1050,186.5625,-24.5,-259.5,0.015625,0.7016602,-0.418457,0.5488281,-0.2075195,0.6845703
1051,193.5625,-28.0625,-255.4375,0.03125,0.4658203,-0.3510742,0.5351563,-0.1689453,0.6689453
1052,191.25,-28.5625,-244.1875,0.09521484,0.3652344,-0.2602539,0.5297852,-0.1333008,0.6557617
1053,190.625,-28.4375,-228.5625,0.08300781,0.3037109,-0.3076172,0.5297852,-0.1333008,0.6557617
1054,189.875,-30.5625,-216.5625,0.1625977,0.3076172,-0.2763672,0.503418,-0.1049805,0.6347656
1055,192.625,-29.4375,-205.9375,0.2143555,0.222168,-0.2128906,0.5112305,-0.06933594,0.6162109
1056,200.9375,-22.375,-197,0.2700195,0.1992188,-0.2128906,0.5112305,-0.06933594,0.6162109
1057,206.75,-15.75,-187.625,0.1826172,0.1142578,-0.2089844,0.5112305,-0.03369141,0.6005859
1058,211.6875,-6.75,-175.5,0.1108398,0.02929688,-0.1733398,0.5112305,-0.03369141,0.6005859
1059,212.125,3.25,-164,0.09912109,0.005859375,-0.1577148,0.4741211,-0.015625,0.5844727
1060,213.5625,13.625,-157.125,0.08691406,0.02929688,-0.1416016,0.4765625,0.01464844,0.5556641
1061,217.625,23.625,-155.9375,0.1469727,0.009765625,-0.1577148,0.4765625,0.01464844,0.5556641
1062,224.4375,31,-154.4375,0.1665039,-0.08984375,-0.08251953,0.449707,0.01953125,0.5478516
1063,225.75,33.5625,-149.625,0.1625977,-0.1865234,-0.06298828,0.449707,0.01953125,0.5478516
1064,216.125,26.125,-140.1875,0.1787109,-0.2602539,-0.046875,0.4287109,0.04785156,0.5112305
1065,200.75,15.3125,-131.125,0.1469727,-0.3027344,-0.1064453,0.4287109,0.07373047,0.5004883
1066,180.4375,5.875,-122.625,0.1147461,-0.3334961,-0.01904297,0.4287109,0.07373047,0.5004883
1067,166.0625,1.25,-114.5,0.08300781,-0.4145508,-0.06298828,0.3964844,0.07861328,0.4663086
1068,155.5,-2.3125,-104.375,0.04736328,-0.4916992,-0.1103516,0.3857422,0.09375,0.4506836
1069,151.25,2.9375,-96.625,0.03955078,-0.4648438,-0.1020508,0.3857422,0.09375,0.4506836
1070,160.9375,17.125,-90.375,0.0234375,-0.5654297,-0.1064453,0.3886719,0.109375,0.4189453
1071,172.4375,40.375,-77.625,0.03125,-0.5922852,-0.1499023,0.3886719,0.109375,0.4189453
1072,183.8125,61.4375,-66.8125,0.06738281,-0.5307617,-0.2011719,0.3564453,0.1196289,0.4165039
1073,205.8125,89.25,-64.4375,0.1069336,-0.4882813,-0.1376953,0.3618164,0.1347656,0.3818359
1074,233.6875,114.9375,-63.5625,0.09912109,-0.4882813,-0.1772461,0.3618164,0.1347656,0.3818359
1075,249.5,129.3125,-57.0625,0.1386719,-0.5576172,-0.1894531,0.3540039,0.1474609,0.3637695
1076,251.1875,128.4375,-44.4375,0.1704102,-0.6157227,-0.1933594,0.3540039,0.1474609,0.3637695
1077,240.75,119.3125,-29.9375,0.206543,-0.6040039,-0.1376953,0.3217773,0.1503906,0.3374023
1078,231.8125,104.0625,-16.4375,0.2822266,-0.6196289,-0.1142578,0.3325195,0.1606445,0.3188477
1079,222.4375,89.75,-2.375,0.3217773,-0.5771484,-0.1499023,0.3325195,0.1606445,0.3188477
1080,213.875,72.25,8.9375,0.2700195,-0.5268555,-0.1694336,0.3217773,0.1552734,0.2768555
1081,210.625,59.25,20.5,0.2504883,-0.5073242,-0.01513672,0.3217773,0.1552734,0.2768555
1082,216.1875,53,30.1875,0.3017578,-0.4418945,0.06738281,0.3217773,0.1552734,0.2768555
1083,217.125,40.4375,38.6875,0.2939453,-0.4301758,0.1303711,0.3378906,0.1577148,0.2348633
1084,206.6875,17,45.5625,0.3417969,-0.3876953,0.2333984,0.3378906,0.1577148,0.2348633
1085,192.3125,-11.5625,48.375,0.3457031,-0.3798828,0.3754883,0.3378906,0.1577148,0.2348633
1086,171.5625,-25.0625,52.125,0.3774414,-0.3759766,0.4980469,0.3378906,0.1450195,0.1791992
1087,166.0625,-19.0625,52.5625,0.4414063,-0.3720703,0.7983398,0.3378906,0.1450195,0.1791992
1089,157.5,1.625,55.1875,0.5009766,-0.4418945,0.7431641,0.3378906,0.1450195,0.1791992
1090,151.4375,25,58.6875,0.6083984,-0.5229492,0.7587891,0.3378906,0.1450195,0.1791992
1091,154.6875,51.3125,65.1875,0.7041016,-0.4956055,0.7788086,0.3486328,0.1274414,0.1401367
1092,159.375,80.8125,78.75,0.7836914,-0.5576172,0.7626953,0.3618164,0.1323242,0.1162109
1093,163.75,115.5,98.4375,0.9228516,-0.6000977,0.7270508,0.3618164,0.1323242,0.1162109
1094,172.4375,149.625,123.25,0.9863281,-0.6118164,0.7114258,0.3833008,0.1142578,0.1083984
1095,178.625,166.6875,149,1.062012,-0.5229492,0.6918945,0.3833008,0.1142578,0.1083984
1096,181,168.4375,177.0625,0.9628906,-0.4106445,0.8378906,0.394043,0.1040039,0.1030273
1097,176.375,157.25,201.4375,0.9228516,-0.3530273,0.9760742,0.4287109,0.09130859,0.1005859
1098,156.3125,134.125,219.0625,0.684082,-0.175293,1.015625,0.4287109,0.09130859,0.1005859
1099,133.25,97.625,225.1875,0.4291992,0.04833984,1.059082,0.449707,0.07617188,0.06884766
1100,110.0625,54.75,215.875,0.1987305,0.203125,1.106934,0.4711914,0.04541016,0.06640625
1101,91.3125,17.625,202.0625,0.08691406,0.2109375,1.225098,0.4711914,0.04541016,0.06640625
1102,72.3125,12.5625,195.3125,0.1347656,0.1489258,1.347656,0.5112305,0.03759766,0.06103516
1103,60.0625,26,198.0625,0.1230469,0.08740234,1.379395,0.5112305,0.03759766,0.06103516
1104,47.125,30.5,202.8125,-0.02001953,0.1259766,1.359863,0.5244141,0.01953125,0.06103516
1105,33.625,27.5625,202.625,-0.2426758,0.1450195,1.332031,0.5488281,-0.005371094,0.05322266
1106,10.4375,8.0625,193.5,-0.4575195,0.168457,1.324219,0.5488281,-0.005371094,0.05322266
1107,-13.6875,-14.0625,180.75,-0.5292969,0.07568359,1.320313,0.5673828,-0.01318359,0.05810547
1108,-37.4375,-25.1875,170.125,-0.4936523,-0.06298828,1.328125,0.5673828,-0.01318359,0.05810547
1109,-54.125,-36.4375,166.8125,-0.3105469,-0.1557617,1.225098,0.5751953,-0.02832031,0.06103516
1110,-55.625,-58,167.75,-0.07177734,-0.1865234,1.130371,0.5913086,-0.03369141,0.06884766
1111,-52.3125,-79.5625,173.375,-0.1513672,-0.1289063,1.189941,0.5913086,-0.03369141,0.06884766
1112,-49.5,-87.75,181.125,-0.1791992,-0.1401367,1.308105,0.6074219,-0.04882813,0.06347656
1113,-45.125,-89.5,188.5625,-0.2587891,-0.004882813,1.339844,0.6074219,-0.06396484,0.05810547
1114,-40.8125,-91.75,191.8125,-0.2387695,-0.05126953,1.367676,0.6074219,-0.06396484,0.05810547
1115,-34.6875,-77.875,206.9375,-0.1352539,-0.1674805,1.529785,0.6313477,-0.08203125,0.04785156
1116,-34.125,-68.75,221.1875,-0.246582,-0.01660156,1.70752,0.6313477,-0.08203125,0.04785156
1117,-35.6875,-64.0625,227.4375,-0.3979492,0.1333008,1.853516,0.6313477,-0.09228516,0.05322266
1118,-46.8125,-54.8125,230.9375,-0.5053711,0.2148438,2.134277,0.6474609,-0.1176758,0.05029297
1119,-65.4375,-46,234.5,-0.6728516,0.3691406,2.355957,0.6474609,-0.1176758,0.05029297
1120,-86.0625,-40.0625,231.375,-0.8916016,0.4853516,2.367676,0.6743164,-0.1357422,0.05029297
1121,-100.9375,-38.4375,220.8125,-0.9511719,0.5507813,2.272949,0.6743164,-0.1357422,0.05029297
1122,-111.6875,-39.875,212.3125,-0.9033203,0.4887695,2.229492,0.6899414,-0.1586914,0.05566406
1123,-121.3125,-47.5,212.75,-0.7958984,0.4311523,2.209473,0.6796875,-0.1713867,0.05322266
1124,-129.5,-52.875,215.75,-0.9116211,0.5239258,2.241211,0.6796875,-0.1713867,0.05322266
1125,-134.5,-51.8125,212.4375,-0.9790039,0.5664063,2.339844,0.6982422,-0.2021484,0.05810547
1126,-142.0625,-42.375,208.625,-1.058594,0.6206055,2.490234,0.7006836,-0.2075195,0.05810547
1127,-155.1875,-29.6875,207.125,-1.050781,0.6821289,2.581055,0.7006836,-0.2075195,0.05810547
1128,-165.8125,-17.8125,206.125,-1.058594,0.7285156,2.561035,0.7089844,-0.2382813,0.06347656
1129,-172.875,0.875,205.6875,-1.010742,0.7866211,2.584961,0.7089844,-0.2382813,0.06347656
1130,-183.125,20.1875,206.125,-0.9672852,0.8173828,2.549316,0.7089844,-0.2382813,0.06347656
1131,-193.125,33.9375,207.375,-0.8876953,0.8442383,2.501953,0.7353516,-0.2558594,0.08740234
1132,-199.5,50.5625,211.75,-0.8081055,0.887207,2.438965,0.7353516,-0.2558594,0.08740234
1133,-205.375,78.1875,216.8125,-0.8955078,0.9912109,2.675781,0.7353516,-0.2558594,0.08740234
1134,-213.6875,119.375,216,-0.9829102,1.196289,2.731445,0.7353516,-0.2558594,0.08740234
1135,-237.1875,160,213.9375,-0.9155273,1.794922,2.952637,0.7753906,-0.2919922,0.1054688
1136,-242.0625,194.6875,204.1875,-1.14209,1.342773,2.644043,0.7705078,-0.3149414,0.1293945
1137,-255.8125,221.5625,201,-1.154297,1.38916,2.36377,0.7705078,-0.3149414,0.1293945
1138,-263.6875,222.3125,197.4375,-1.098633,1.362305,1.940918,0.7944336,-0.3330078,0.1635742
1139,-268.5,210.75,197.75,-1.098633,1.288574,1.754883,0.7944336,-0.3330078,0.1635742
1140,-274.875,194.0625,200.8125,-1.094727,1.296387,1.529785,0.7890625,-0.3432617,0.2055664
1141,-278.375,174.375,202.25,-1.066895,1.285156,1.383301,0.8051758,-0.3710938,0.2216797
1142,-281.625,161.875,203.75,-1.034668,1.319824,1.332031,0.8051758,-0.3710938,0.2216797
1143,-284.625,159.8125,208.4375,-0.9194336,1.288574,1.328125,0.8183594,-0.3867188,0.2583008
1144,-284.9375,174.875,214.1875,-0.9072266,1.304199,1.328125,0.8129883,-0.4145508,0.2978516
1145,-280.875,204,216.1875,-0.8754883,1.38916,1.308105,0.8129883,-0.4145508,0.2978516
1146,-275.9375,237.75,215.9375,-0.815918,1.408691,1.162109,0.8105469,-0.453125,0.3056641
1147,-269.375,267.625,215.25,-0.8120117,1.474121,1.047363,0.8105469,-0.453125,0.3056641
1148,-262.375,292.3125,211.1875,-0.8476563,1.505371,0.8657227,0.8237305,-0.4760742,0.3427734
1149,-254.0625,305.625,202.375,-0.84375,1.493652,0.6640625,0.8022461,-0.4990234,0.3818359
1150,-250.5,302.875,195.125,-0.8237305,1.489746,0.5175781,0.8022461,-0.4990234,0.3818359
1151,-248.9375,293.1875,187.5625,-0.871582,1.501465,0.4189453,0.8022461,-0.5551758,0.4135742
1152,-244.0625,283.25,176.75,-0.8994141,1.540039,0.34375,0.8022461,-0.5551758,0.4135742
1154,-239.5,271.625,165.25,-0.9072266,1.532227,0.2807617,0.7836914,-0.5756836,0.4477539
1155,-238,259.8125,155.75,-0.8837891,1.474121,0.2490234,0.7729492,-0.6040039,0.4741211
1156,-237.4375,250.0625,146.75,-0.9116211,1.447266,0.2016602,0.7729492,-0.6040039,0.4741211
1157,-236.625,243.25,137.625,-0.9311523,1.470215,0.1147461,0.7597656,-0.6396484,0.4897461
1158,-231.9375,240.0625,126.9375,-0.9033203,1.427734,-0.0234375,0.7407227,-0.6577148,0.5244141
1159,-222.875,240.9375,118.625,-0.8994141,1.377441,-0.1337891,0.7407227,-0.6577148,0.5244141
1160,-210.375,246.8125,111.6875,-0.871582,1.342773,-0.2128906,0.7167969,-0.6884766,0.5268555
1161,-195.75,258.9375,103.9375,-0.9711914,1.377441,-0.2880859,0.7167969,-0.6884766,0.5268555
1162,-178.125,274.4375,91.9375,-1.046875,1.362305,-0.3554688,0.7197266,-0.7138672,0.5556641
1163,-158.375,295.125,76.1875,-1.150391,1.439453,-0.434082,0.6796875,-0.734375,0.5820313
1164,-137.625,315.75,58.125,-1.253906,1.474121,-0.4384766,0.6796875,-0.734375,0.5820313
1165,-119.6875,335.1875,37.1875,-1.357422,1.547852,-0.4462891,0.6713867,-0.7675781,0.6005859
1166,-106,353.0625,12.25,-1.492676,1.598145,-0.4975586,0.6713867,-0.7675781,0.6005859
1167,-93.4375,361.0625,-13.75,-1.492676,1.601563,-0.6396484,0.6420898,-0.7651367,0.6347656
1168,-83.1875,363.25,-38.4375,-1.432617,1.543945,-0.746582,0.6020508,-0.7651367,0.6665039
1169,-71.25,359.9375,-57.875,-1.365234,1.470215,-0.9443359,0.6020508,-0.7651367,0.6665039
1170,-58.875,345.0625,-71.5625,-1.30127,1.404785,-1.078613,0.5805664,-0.777832,0.6923828
1171,-45.0625,320.5,-82.625,-1.273438,1.42041,-1.197266,0.5458984,-0.7753906,0.7109375
1172,-32.9375,289.625,-98.3125,-1.353027,1.501465,-1.347168,0.5458984,-0.7753906,0.7109375
1173,-14.25,255.875,-122.625,-1.373047,1.578613,-1.327637,0.5195313,-0.7573242,0.7373047
1174,1.9375,226.8125,-147.5,-1.269531,1.562988,-1.315918,0.5195313,-0.7573242,0.7373047
1175,16.0625,195.375,-168.3125,-1.098633,1.543945,-1.228516,0.5141602,-0.7602539,0.7480469
1176,27.1875,168.5,-181.625,-0.9233398,1.466309,-1.066895,0.4951172,-0.7294922,0.7636719
1177,38.125,151.1875,-188.9375,-0.7802734,1.455078,-0.9482422,0.4951172,-0.7294922,0.7636719
1178,48.1875,140.625,-192.8125,-0.6606445,1.431641,-0.8769531,0.4951172,-0.7294922,0.7636719
1179,59.5625,134.9375,-196.5625,-0.5454102,1.385254,-0.8530273,0.4951172,-0.7294922,0.7636719
1180,70.6875,132.5625,-198.25,-0.4814453,1.366211,-0.8413086,0.5004883,-0.706543,0.7875977
1181,78.9375,131.3125,-197.5625,-0.4057617,1.273438,-0.8056641,0.5004883,-0.706543,0.7875977
1182,85,128.125,-193.5,-0.2827148,1.196289,-0.762207,0.5004883,-0.706543,0.7875977
1183,91.125,122.4375,-186.375,-0.2109375,1.138184,-0.746582,0.4926758,-0.6523438,0.7924805
1184,99.3125,117.0625,-179.5625,-0.190918,1.061035,-0.7504883,0.4926758,-0.6523438,0.7924805
1185,111.3125,113.1875,-171.4375,-0.175293,0.972168,-0.6953125,0.4819336,-0.6245117,0.8056641
1186,124,115.25,-161,-0.1074219,0.9101563,-0.71875,0.4711914,-0.6064453,0.800293
1187,137.75,110.8125,-150.1875,-0.09570313,0.8481445,-0.7387695,0.4711914,-0.6064453,0.800293
1188,149.5,102.3125,-137.6875,-0.09130859,0.8212891,-0.7070313,0.4819336,-0.5732422,0.8188477
1189,157.625,97.25,-126.25,-0.1274414,0.7905273,-0.7265625,0.4633789,-0.5478516,0.8266602
1190,166.375,97.75,-116.0625,-0.1791992,0.7866211,-0.71875,0.4633789,-0.5478516,0.8266602
1191,175.25,100.1875,-108.875,-0.2626953,0.7827148,-0.7265625,0.449707,-0.5219727,0.8349609
1192,183.625,104.25,-102.4375,-0.230957,0.7788086,-0.6992188,0.449707,-0.5219727,0.8349609
1193,190.5,106.75,-96.6875,-0.1992188,0.7363281,-0.5844727,0.4550781,-0.4941406,0.8349609
1194,194.8125,109.4375,-89.875,-0.1948242,0.6938477,-0.5766602,0.4311523,-0.4707031,0.8452148
1195,200.0625,122.375,-80.875,-0.1791992,0.7055664,-0.4301758,0.4311523,-0.4707031,0.8452148
1196,206.25,144.5,-70.5,-0.1352539,0.6396484,-0.3867188,0.4042969,-0.4404297,0.8452148
1197,213.1875,173.0625,-59.3125,-0.1035156,0.5932617,-0.3828125,0.4042969,-0.4404297,0.8452148
1198,219.0625,199.1875,-45,-0.09570313,0.5664063,-0.3510742,0.4018555,-0.4072266,0.855957
1199,222.5625,218.375,-26.9375,-0.09570313,0.5390625,-0.434082,0.3540039,-0.3813477,0.8637695
1200,223.75,220.4375,-12.125,-0.1713867,0.5703125,-0.5527344,0.3540039,-0.3813477,0.8637695
1201,224.25,209.8125,-2.25,-0.246582,0.597168,-0.6318359,0.3432617,-0.3378906,0.8637695
1202,223.875,191.875,1.8125,-0.2866211,0.581543,-0.7504883,0.3242188,-0.3251953,0.8662109
1203,231.75,171.875,-0.875,-0.2788086,0.6665039,-0.8969727,0.3242188,-0.3251953,0.8662109
1204,248.8125,149,-11,-0.2548828,0.6474609,-0.9755859,0.2924805,-0.2866211,0.8505859
1205,268.0625,123.5625,-22.125,-0.2070313,0.5854492,-0.9404297,0.2924805,-0.2866211,0.8505859
1206,281.75,104.375,-27.5,-0.1074219,0.4853516,-0.7744141,0.2949219,-0.2558594,0.8505859
1207,292.625,96.6875,-25.375,-0.00390625,0.4428711,-0.6357422,0.265625,-0.2124023,0.8452148
1208,295,87.6875,-19.875,0.07519531,0.4155273,-0.5766602,0.265625,-0.2124023,0.8452148
1209,295.875,74.8125,-16.0625,0.09521484,0.3808594,-0.4897461,0.2416992,-0.1918945,0.8217773
1210,293.4375,62.875,-13.25,0.08691406,0.3422852,-0.4145508,0.2416992,-0.1918945,0.8217773
1211,292.75,57.3125,-11.75,0.1069336,0.3344727,-0.4145508,0.265625,-0.1484375,0.8085938
1212,293.3125,54.8125,-11.4375,0.1108398,0.2841797,-0.3710938,0.2285156,-0.1206055,0.7792969
1213,293.3125,49.375,-11.875,0.1347656,0.2260742,-0.3076172,0.2285156,-0.1206055,0.7792969
1214,291,42.5,-11.9375,0.1943359,0.1992188,-0.3037109,0.230957,-0.07714844,0.7612305
1215,288.9375,36.625,-10.1875,0.2978516,0.1489258,-0.2285156,0.2416992,-0.04101563,0.7480469
1216,285.3125,36,-6.5,0.3417969,0.1259766,-0.1850586,0.2416992,-0.04101563,0.7480469
1217,277.75,32.125,0.3125,0.4013672,0.09863281,-0.1459961,0.2285156,-0.02587891,0.7163086
1219,269.3125,25.3125,6.5,0.4414063,0.06396484,-0.1772461,0.2285156,-0.02587891,0.7163086
1220,261.125,15.3125,11.375,0.409668,0.001953125,-0.2407227,0.2285156,0.006835938,0.6923828
1221,257.375,7.1875,16.5625,0.409668,-0.008789063,-0.2841797,0.2363281,0.02734375,0.6665039
1222,258.0625,6.8125,22.25,0.453125,-0.07080078,-0.3354492,0.2363281,0.02734375,0.6665039
1223,264.9375,13.125,31,0.4692383,-0.1171875,-0.3354492,0.2285156,0.05322266,0.637207
1224,274.9375,23.125,41.0625,0.5288086,-0.1171875,-0.3789063,0.2285156,0.05322266,0.637207
1225,284.25,31.125,51.6875,0.5449219,-0.08642578,-0.3432617,0.2441406,0.07861328,0.6162109
1226,290,34,61.9375,0.5805664,-0.08251953,-0.2563477,0.2441406,0.07861328,0.6162109
1227,290,35.625,71.625,0.5766602,-0.08642578,-0.1459961,0.2441406,0.07861328,0.6162109
1228,282.375,30.5,80.5625,0.5644531,-0.04003906,-0.1142578,0.2495117,0.1015625,0.550293
1229,271.75,22.6875,87.75,0.5327148,-0.1132813,-0.09814453,0.2495117,0.1015625,0.550293
1230,263.5,10.875,93.5,0.5688477,-0.1401367,-0.2128906,0.2495117,0.1015625,0.550293
1231,263.625,-2.8125,98.625,0.6206055,-0.1362305,-0.3432617,0.2578125,0.1274414,0.4584961
1232,271.8125,-13.875,104.9375,0.6918945,-0.1328125,-0.2841797,0.2578125,0.1274414,0.4584961
1233,281.8125,-20,114.3125,0.7714844,-0.03222656,-0.1616211,0.2788086,0.152832,0.4321289
1234,290.4375,-24.625,124.0625,0.8510742,0.06005859,-0.0234375,0.300293,0.152832,0.4003906
1235,297.5625,-31.125,132.1875,0.8510742,0.09472656,0.1147461,0.300293,0.152832,0.4003906
1236,298.875,-36.75,139.0625,0.9111328,0.152832,0.2451172,0.3056641,0.1503906,0.355957
1237,296.75,-42.1875,143.75,0.9306641,0.1411133,0.4072266,0.3056641,0.1503906,0.355957
1238,294.375,-45,147.5625,0.9946289,0.1645508,0.4428711,0.3432617,0.1577148,0.3188477
1239,293.5625,-42.25,155.75,1.102051,0.1220703,0.5219727,0.3457031,0.1503906,0.2739258
1240,291.25,-40.75,169.3125,1.197754,0.1333008,0.5888672,0.3457031,0.1503906,0.2739258
1241,288.25,-45.5,184.75,1.265137,0.152832,0.6640625,0.3642578,0.1450195,0.2451172
1242,285.25,-52.3125,201.75,1.296875,0.152832,0.7827148,0.3642578,0.1450195,0.2451172
1243,280,-57.375,219.6875,1.265137,0.2612305,0.9287109,0.4072266,0.1376953,0.1821289
1244,272.9375,-60.0625,234.4375,1.181641,0.2880859,0.9960938,0.394043,0.1196289,0.1582031
1245,266.75,-55.625,250.375,1.062012,0.3730469,1.150391,0.394043,0.1196289,0.1582031
1246,259.75,-49.1875,264.375,0.8789063,0.4697266,1.249023,0.4233398,0.08886719,0.1240234
1247,253.5625,-46.3125,271.8125,0.6640625,0.597168,1.316406,0.4633789,0.07861328,0.09228516
1248,247.4375,-47.375,270.6875,0.4570313,0.6860352,1.418945,0.4633789,0.07861328,0.09228516
1249,233.25,-58.375,264.5,0.2783203,0.7402344,1.537598,0.4765625,0.04541016,0.06347656
1250,208.8125,-93.4375,248.375,0.1425781,0.8442383,1.584961,0.4765625,0.04541016,0.06347656
1251,187.5,-134.1875,230.875,0.1704102,0.7905273,1.679688,0.4926758,0.02734375,0.03710938
1252,167.5625,-165.0625,219.875,0.1704102,0.6166992,1.818359,0.5244141,-0.0078125,0.01074219
1253,158.1875,-176.4375,218.625,0.1943359,0.5351563,1.861816,0.5244141,-0.0078125,0.01074219
1254,164.625,-163.0625,225.375,0.2700195,0.4428711,1.996094,0.5141602,-0.03076172,-0.006835938
1255,177,-124.9375,239.4375,0.234375,0.4194336,2.225098,0.5141602,-0.03076172,-0.006835938
1256,183,-85.375,252.75,0.09912109,0.5351563,2.367676,0.5380859,-0.05371094,-0.03613281
1257,185.125,-51.6875,265.8125,0.06298828,0.6396484,2.557129,0.5566406,-0.08740234,-0.0625
1258,180.3125,-14.625,279.5,-0.04785156,0.7905273,2.794434,0.5566406,-0.08740234,-0.0625
1259,166.4375,15.125,290.4375,-0.2626953,0.9526367,2.960449,0.5566406,-0.1206055,-0.05712891
1260,144.6875,25.875,291.5625,-0.4936523,1.103516,3.003906,0.6074219,-0.1616211,-0.07519531
1261,121.1875,26.5,287.75,-0.6884766,1.157227,3.039551,0.6074219,-0.1616211,-0.07519531
1262,98.125,26.875,282.8125,-0.8676758,1.172852,3.09082,0.612793,-0.1918945,-0.06494141
1263,73.5,22.375,278.0625,-0.9829102,1.18457,3.130371,0.612793,-0.1918945,-0.06494141
1264,48.6875,18.375,273.4375,-1.158203,1.223145,3.146484,0.6259766,-0.2250977,-0.07275391
1265,28.9375,20.9375,266.1875,-1.281738,1.319824,3.146484,0.6474609,-0.2763672,-0.08837891
1266,14.125,28.0625,254.75,-1.440918,1.393066,3.146484,0.6474609,-0.2763672,-0.08837891
1267,0.9375,42.125,244.5,-1.532227,1.362305,3.106934,0.6420898,-0.2890625,-0.078125
1268,-11.4375,61,236.375,-1.572266,1.393066,3.083008,0.6420898,-0.2890625,-0.078125
1269,-25.1875,80.3125,228.25,-1.624023,1.427734,3.05127,0.6689453,-0.3198242,-0.07275391
1270,-43.875,97.1875,221.125,-1.663574,1.512695,3.075195,0.6689453,-0.3198242,-0.07275391
1271,-67.875,109.5,215.5625,-1.735352,1.605469,3.019531,0.6689453,-0.3198242,-0.07275391
1272,-88.0625,122.3125,207.1875,-1.874512,1.663574,2.822266,0.6875,-0.3583984,-0.05175781
1273,-97.5,148.375,197.25,-1.93457,1.729492,2.616699,0.6875,-0.3583984,-0.05175781
1274,-98,181.75,185.5625,-1.950195,1.783203,2.486328,0.6875,-0.3583984,-0.05175781
1275,-101.0625,212.375,172,-1.994141,1.849121,2.383301,0.7197266,-0.4121094,-0.02001953
1276,-106.0625,245.625,159.75,-1.990234,1.87207,2.276855,0.7197266,-0.4121094,-0.02001953
1277,-112.25,279,149.9375,-1.998047,1.922363,2.138184,0.7275391,-0.4145508,0.005859375
1278,-123.625,296.875,136.1875,-2.097656,2.01123,1.952637,0.7490234,-0.4404297,0.03710938
1279,-139.375,297.6875,117.125,-2.23291,2.138672,1.695801,0.7490234,-0.4404297,0.03710938
1280,-155,284.4375,91.75,-2.360352,2.289551,1.478027,0.7705078,-0.4477539,0.07128906
1281,-169.125,269.4375,63.5625,-2.416016,2.320313,1.324219,0.7705078,-0.4477539,0.07128906
1282,-181.3125,258.875,36.75,-2.419922,2.309082,1.197754,0.7705078,-0.4477539,0.1137695
1284,-193.1875,248.375,11.4375,-2.403809,2.305176,1.067383,0.7890625,-0.453125,0.1425781
1285,-202.875,234.875,-12.875,-2.384277,2.285645,0.9130859,0.7890625,-0.453125,0.1425781
1286,-210.0625,220.125,-36.5,-2.304688,2.266602,0.7548828,0.7861328,-0.4326172,0.1767578
1287,-212,211.125,-57.6875,-2.196777,2.216309,0.6484375,0.7861328,-0.4326172,0.1767578
1288,-209.5625,209.6875,-73.4375,-2.033691,2.220215,0.6049805,0.7861328,-0.4272461,0.1953125
1289,-195.125,211.5625,-93.0625,-1.794922,2.150391,0.5571289,0.7915039,-0.4272461,0.2216797
1290,-197.9375,212,-106.625,-1.663574,2.034668,0.699707,0.7915039,-0.4272461,0.2216797
1291,-205.125,223,-111.6875,-1.596191,2.04248,0.6640625,0.7836914,-0.3994141,0.2504883
1292,-210.0625,221.875,-121.25,-1.484375,2.104004,0.4824219,0.796875,-0.3891602,0.2792969
1293,-207.875,215.4375,-135.625,-1.440918,2.030762,0.3676758,0.796875,-0.3891602,0.2792969
1294,-207,205.25,-150.4375,-1.345215,1.972656,0.3320313,0.7944336,-0.3735352,0.3134766
1295,-210.1875,191.8125,-162.4375,-1.202148,1.90332,0.3041992,0.7944336,-0.3735352,0.3134766
1296,-215.75,169.875,-171.375,-1.0625,1.86084,0.2451172,0.7597656,-0.3457031,0.3344727
1297,-220.9375,142.375,-181.1875,-0.9790039,1.82959,0.1855469,0.7729492,-0.3276367,0.355957
1298,-220.5,123.625,-190.125,-0.84375,1.706055,0.1381836,0.7729492,-0.3276367,0.355957
1299,-217.9375,120.5,-194.875,-0.6767578,1.647949,0.2211914,0.7514648,-0.3095703,0.3793945
1300,-214.1875,130.25,-196.4375,-0.5292969,1.566895,0.2885742,0.7514648,-0.3095703,0.3793945
1301,-214.75,141,-193.75,-0.4575195,1.547852,0.284668,0.7353516,-0.2866211,0.3950195
1302,-217.5625,146.5625,-192.5625,-0.4418945,1.489746,0.1542969,0.7382813,-0.2817383,0.4267578
1303,-219.6875,142.25,-195.1875,-0.4536133,1.501465,0.05126953,0.7382813,-0.2817383,0.4267578
1304,-220.4375,132.3125,-198.125,-0.394043,1.42041,-0.09814453,0.7143555,-0.2612305,0.4477539
1305,-217.6875,122.125,-199.6875,-0.3261719,1.288574,-0.1933594,0.6982422,-0.253418,0.4741211
1306,-210.75,114.25,-197.75,-0.2270508,1.192383,-0.3276367,0.6982422,-0.253418,0.4741211
1307,-198.125,114.375,-191.9375,-0.203125,1.064941,-0.4145508,0.6928711,-0.2509766,0.5004883
1308,-182.625,125.4375,-182.875,-0.2270508,0.9912109,-0.4145508,0.6928711,-0.2509766,0.5004883
1309,-168.1875,143.9375,-171.625,-0.2387695,0.9682617,-0.4423828,0.6660156,-0.2353516,0.5161133
1310,-157.875,153.375,-164.1875,-0.3779297,1.072266,-0.5649414,0.6689453,-0.2250977,0.5424805
1311,-153.3125,149.9375,-164,-0.5371094,1.11084,-0.7226563,0.6689453,-0.2250977,0.5424805
1312,-150.625,135.6875,-172,-0.6962891,1.196289,-0.9321289,0.6499023,-0.2226563,0.5532227
1313,-150.5,113.75,-184.5625,-0.7084961,1.14209,-1.042969,0.6499023,-0.2226563,0.5532227
1314,-152.75,86.375,-195.1875,-0.652832,1.037598,-1.12207,0.6152344,-0.2075195,0.5742188
1315,-153.125,66.125,-196.9375,-0.4458008,0.8134766,-1.149902,0.6098633,-0.2075195,0.5795898
1316,-145.5,57.5625,-190.5,-0.3105469,0.6357422,-1.185059,0.6098633,-0.2075195,0.5795898
1317,-131.5,58.125,-177.0625,-0.2109375,0.5161133,-1.086426,0.5913086,-0.1948242,0.6083984
1318,-107,74.25,-161.4375,-0.175293,0.4272461,-1.039063,0.5913086,-0.1948242,0.6083984
1319,-68.875,102.1875,-155.9375,-0.1992188,0.4541016,-1.070801,0.5913086,-0.1948242,0.6083984
1320,-26.3125,131.625,-158.75,-0.2744141,0.496582,-0.9443359,0.5727539,-0.1845703,0.6269531
1321,6.6875,156.125,-159.75,-0.3383789,0.4077148,-0.8613281,0.5727539,-0.1845703,0.6269531
1322,22.75,157.125,-160.1875,-0.3422852,0.4462891,-0.8095703,0.5727539,-0.1845703,0.6269531
1323,25.5,135.25,-161.0625,-0.3105469,0.4233398,-0.730957,0.5195313,-0.1616211,0.6503906
1324,20,105.9375,-161.0625,-0.3105469,0.4814453,-0.6875,0.5195313,-0.1616211,0.6503906
1325,15,81.25,-163.5625,-0.3066406,0.4853516,-0.6557617,0.5141602,-0.1357422,0.6635742
1326,15.875,67.4375,-169.1875,-0.3305664,0.4926758,-0.6279297,0.5141602,-0.1357422,0.6635742
1327,16.5,62.9375,-173.9375,-0.3183594,0.3964844,-0.5371094,0.4741211,-0.1254883,0.6635742
1328,18.3125,65.25,-175,-0.2548828,0.3149414,-0.5727539,0.4711914,-0.1176758,0.6689453
1329,21.3125,63.375,-175.75,-0.1113281,0.2724609,-0.5566406,0.4711914,-0.1176758,0.6689453
1330,24.8125,63.0625,-176.8125,-0.04785156,0.1645508,-0.5332031,0.4550781,-0.09472656,0.6635742
1331,30.75,73.75,-174.4375,0.02734375,0.1142578,-0.5014648,0.4550781,-0.09472656,0.6635742
1332,38.8125,88.6875,-170.5625,0.08691406,0.02929688,-0.5449219,0.4287109,-0.09228516,0.6713867
1333,45.6875,101.5,-164.5,0.1704102,-0.07080078,-0.4858398,0.4072266,-0.07177734,0.6665039
1334,50.6875,114.1875,-154.375,0.1865234,-0.1479492,-0.4736328,0.4072266,-0.07177734,0.6665039
1335,53.9375,123.875,-142.4375,0.1943359,-0.1904297,-0.5214844,0.3964844,-0.06152344,0.6713867
1336,55.875,127.625,-133.5625,0.206543,-0.1826172,-0.5649414,0.3564453,-0.04345703,0.6845703
1337,61.4375,133.6875,-126.375,0.2304688,-0.2021484,-0.6083984,0.3564453,-0.04345703,0.6845703
1338,68.375,147.3125,-118.125,0.2382813,-0.2910156,-0.6713867,0.3486328,-0.03076172,0.6767578
1339,79.3125,162.0625,-108.375,0.262207,-0.3139648,-0.7700195,0.3486328,-0.03076172,0.6767578
1340,89.75,168,-98.625,0.2182617,-0.3256836,-0.8256836,0.3139648,-0.02832031,0.6767578
1341,97.5,164,-91.75,0.1704102,-0.3530273,-0.8730469,0.2895508,-0.01318359,0.6767578
1342,104.3125,157.9375,-87.875,0.1308594,-0.3178711,-0.8217773,0.2895508,-0.01318359,0.6767578
1343,107.0625,149.5625,-87.8125,0.1069336,-0.2910156,-0.7426758,0.2709961,0,0.6689453
1344,100.1875,134.5625,-91.0625,0.06298828,-0.3105469,-0.6713867,0.2709961,0,0.6689453
1345,85.75,113.6875,-96.8125,0.07910156,-0.3139648,-0.6318359,0.2416992,0.01220703,0.6665039
1346,66.625,87.8125,-104.875,0.1191406,-0.3256836,-0.6875,0.2470703,0.02490234,0.6635742
1347,51.5625,64.75,-110.625,0.2382813,-0.3759766,-0.730957,0.2470703,0.02490234,0.6635742
1349,45.1875,53.125,-112.4375,0.3818359,-0.4648438,-0.7900391,0.2231445,0.02978516,0.6503906
1350,52.875,65.125,-108.25,0.5688477,-0.5654297,-0.8256836,0.2016602,0.02734375,0.6533203
1351,72.0625,91.9375,-100,0.6801758,-0.6542969,-0.8925781,0.2016602,0.02734375,0.6533203
1352,96.5,120.5625,-88.375,0.7675781,-0.7158203,-0.9799805,0.1933594,0.03515625,0.6503906
1353,125.375,136.25,-68.25,0.8154297,-0.8549805,-1.066895,0.1933594,0.03515625,0.6503906
1354,141.5,149.4375,-43.4375,0.8989258,-1.133301,-0.8808594,0.1640625,0.04003906,0.6293945
1355,166.0625,154.1875,-10.75,0.9267578,-0.8745117,-0.9243164,0.1376953,0.05322266,0.6240234
1356,171,158.375,12.375,0.8037109,-0.8510742,-0.7109375,0.1376953,0.05322266,0.6240234
1357,179.5625,158.0625,30.9375,0.6723633,-0.7470703,-0.6396484,0.1455078,0.07373047,0.6083984
1358,180,164.25,43.875,0.5927734,-0.6967773,-0.4975586,0.1455078,0.07373047,0.6083984
1359,179.8125,169.125,50.9375,0.4970703,-0.6040039,-0.4619141,0.121582,0.08642578,0.5874023
1360,179.0625,168.625,51.9375,0.4375,-0.5498047,-0.4262695,0.1240234,0.1069336,0.5532227
1361,179.875,170.375,52.125,0.3735352,-0.6196289,-0.3789063,0.1240234,0.1069336,0.5532227
1362,177.8125,169.4375,52.6875,0.3496094,-0.5922852,-0.3945313,0.1430664,0.1220703,0.5424805
1363,174.6875,162.625,52.5,0.3378906,-0.5883789,-0.4145508,0.1323242,0.1220703,0.5112305
1364,168.1875,148.1875,52.25,0.3178711,-0.6040039,-0.4462891,0.1323242,0.1220703,0.5112305
1365,161.0625,122.3125,51.8125,0.2861328,-0.5883789,-0.5292969,0.1401367,0.1474609,0.4980469
1366,153.625,90.5625,47.3125,0.2861328,-0.5458984,-0.5214844,0.1401367,0.1474609,0.4980469
1367,149.3125,58.375,40.25,0.2822266,-0.5883789,-0.4858398,0.1401367,0.1474609,0.4980469
1368,144.5,30.6875,32.875,0.2900391,-0.6000977,-0.4619141,0.1376953,0.1503906,0.4506836
1369,142.9375,12.3125,28.125,0.3100586,-0.6196289,-0.4423828,0.1376953,0.1503906,0.4506836
1370,142.6875,-0.75,23.9375,0.4174805,-0.6269531,-0.4301758,0.1376953,0.1503906,0.4506836
1371,144.5625,-11.75,22.375,0.4731445,-0.6850586,-0.4423828,0.1376953,0.1503906,0.4506836
1372,152.8125,-20.6875,24.8125,0.5449219,-0.6928711,-0.4819336,0.1455078,0.1552734,0.4057617
1373,164.9375,-24.4375,31.25,0.6401367,-0.7119141,-0.4106445,0.1533203,0.1708984,0.3950195
1374,178.75,-24.5625,40.3125,0.6762695,-0.6811523,-0.4067383,0.1533203,0.1708984,0.3950195
1375,189.375,-22.3125,50.5,0.684082,-0.7119141,-0.2958984,0.1586914,0.1782227,0.3662109
1376,195,-21.25,61,0.65625,-0.6464844,-0.2485352,0.1586914,0.1782227,0.3662109
1377,197.5625,-28.9375,69.4375,0.7197266,-0.5576172,-0.1972656,0.15625,0.1782227,0.3398438
1378,199.75,-45.5,72.75,0.6958008,-0.4804688,-0.2246094,0.1723633,0.1914063,0.3212891
1379,201.6875,-65.75,74.25,0.6523438,-0.4379883,-0.1376953,0.1723633,0.1914063,0.3212891
1380,200.9375,-72.375,76.75,0.65625,-0.3955078,0,0.1933594,0.1860352,0.2792969
1381,196.875,-67.75,79.3125,0.6640625,-0.3530273,0.1186523,0.1962891,0.1884766,0.2558594
1382,190.6875,-65.75,81.6875,0.684082,-0.3491211,0.09863281,0.1962891,0.1884766,0.2558594
1383,185.9375,-71.1875,85.875,0.7241211,-0.3876953,0.0078125,0.2177734,0.1962891,0.2163086
1384,186,-80.5625,91.4375,0.7558594,-0.3642578,-0.07080078,0.2177734,0.1962891,0.2163086
1385,190.3125,-86.5625,99.25,0.7675781,-0.3295898,-0.03125,0.2285156,0.1860352,0.1977539
1386,195.0625,-90.6875,108.0625,0.7397461,-0.2675781,0.03173828,0.2202148,0.1782227,0.1713867
1387,195.75,-99.75,116.6875,0.7714844,-0.1787109,0.04736328,0.2202148,0.1782227,0.1713867
1388,191.6875,-121.625,122.375,0.7280273,-0.09375,0.03564453,0.2470703,0.1811523,0.1186523
1389,182.5625,-162.9375,123.8125,0.7358398,0.02148438,0.04736328,0.2470703,0.1811523,0.1186523
1390,169.3125,-211.75,119.9375,0.7080078,0.137207,0.1977539,0.230957,0.1606445,0.1083984
1391,164.8125,-237.8125,112.1875,0.7558594,0.1953125,0.387207,0.2363281,0.1630859,0.07958984
1392,178.25,-215.6875,105.9375,0.8671875,0.1606445,0.5493164,0.2363281,0.1630859,0.07958984
1393,204.25,-155.4375,109.625,0.9545898,0.07568359,0.5454102,0.2441406,0.1552734,0.05029297
1394,227.9375,-111.0625,120.375,1.054199,0.1298828,0.4741211,0.230957,0.1245117,0.01904297
1395,242.9375,-97.0625,135.375,1.133789,0.1411133,0.4780273,0.230957,0.1245117,0.01904297
1396,253.125,-102.0625,151.125,1.129883,0.2612305,0.5493164,0.2416992,0.1171875,0.008300781
1397,261.3125,-111.125,164.75,1.070313,0.3500977,0.6601563,0.2416992,0.1171875,0.008300781
1398,268.5,-119.1875,174.4375,0.9667969,0.4736328,0.7548828,0.2441406,0.1069336,-0.04101563
1399,277.6875,-126,178.0625,0.9111328,0.5351563,0.8774414,0.2416992,0.07861328,-0.06738281
1400,287,-128.375,180.25,0.8833008,0.6318359,1.083008,0.2416992,0.07861328,-0.06738281
1401,287.0625,-130.6875,183.375,0.831543,0.7246094,1.375488,0.2685547,0.05566406,-0.09667969
1402,277.9375,-132.75,183.3125,0.7915039,0.8017578,1.70752,0.2685547,0.05566406,-0.09667969
1403,266,-129.4375,181.3125,0.7875977,0.8754883,2.007813,0.2709961,0.02490234,-0.1357422
1404,250.5,-120.1875,178.3125,0.8554688,0.8754883,2.185547,0.2602539,-0.002929688,-0.1464844
1405,233.625,-116.8125,177.4375,0.9746094,0.7827148,2.233398,0.2602539,-0.002929688,-0.1464844
1406,230.6875,-102.75,187.9375,1.145996,0.5893555,2.324219,0.2841797,-0.02050781,-0.1704102
1407,236.4375,-69,209.5,1.177734,0.5429688,2.383301,0.2763672,-0.04882813,-0.1806641
1408,241.3125,-26.5,233.375,1.11377,0.581543,2.588867,0.2763672,-0.04882813,-0.1806641
1409,234.125,14.875,253.875,1.006348,0.6938477,2.735352,0.2841797,-0.07421875,-0.1962891
1410,221.875,44.1875,271.6875,0.8950195,0.8134766,2.790527,0.2841797,-0.07421875,-0.1962891
1411,203,53.625,285.1875,0.8154297,0.9296875,2.853516,0.3164063,-0.1049805,-0.2202148
1412,178.4375,51.75,295.3125,0.6958008,1.021973,2.865723,0.3457031,-0.1333008,-0.2226563
1414,149.6875,43,302.4375,0.5488281,1.061035,2.944824,0.3457031,-0.1333008,-0.2226563
1415,116.875,23.375,307.625,0.465332,1.107422,2.936523,0.3457031,-0.1333008,-0.2226563
1416,84,-5.25,312.375,0.4213867,1.192383,2.940918,0.3457031,-0.1333008,-0.2226563
1417,53.5625,-32.25,317.8125,0.480957,1.38916,3.067383,0.3964844,-0.2075195,-0.2358398
1418,11.625,-52.5625,331.75,0.2304688,1.794922,3.316406,0.3964844,-0.2075195,-0.2358398
1419,2.5625,-67.75,328.25,0.3457031,1.509277,3,0.3964844,-0.2075195,-0.2358398
1420,-20.5,-77.3125,331.25,0.3657227,1.547852,3.055176,0.4204102,-0.2558594,-0.246582
1421,-29.6875,-71.3125,332.5,0.3496094,1.655762,3.047363,0.4204102,-0.2558594,-0.246582
1422,-27.1875,-50,330,0.2900391,1.72168,3.039551,0.4257813,-0.2817383,-0.2490234
1423,-18.625,-14.5625,330.1875,0.2026367,1.69043,3.023926,0.4311523,-0.2890625,-0.2436523
1424,-14.8125,32,334.3125,0.1425781,1.72168,3.003906,0.4311523,-0.2890625,-0.2436523
1425,-18.8125,68.4375,339.0625,0.02734375,1.825684,2.944824,0.4394531,-0.3198242,-0.2597656
1426,-36.5,71.25,337.6875,-0.1630859,1.96875,2.893066,0.4526367,-0.3198242,-0.246582
1427,-60.875,47.0625,329.25,-0.4018555,2.038574,2.814453,0.4526367,-0.3198242,-0.246582
1428,-79.375,22.6875,318.8125,-0.5371094,2.081055,2.802246,0.4604492,-0.3378906,-0.2358398
1429,-94.5,6.625,306.0625,-0.6728516,2.10791,2.877441,0.4604492,-0.3378906,-0.2358398
1430,-104.875,0,292,-0.6845703,2.115723,2.920898,0.4794922,-0.3608398,-0.2387695
1431,-111.75,2.875,278.5625,-0.6884766,2.100098,2.956543,0.4765625,-0.3608398,-0.2412109
1432,-121,14.4375,266.5625,-0.640625,2.104004,3.09082,0.4765625,-0.3608398,-0.2412109
1433,-135.625,27.125,255.5625,-0.625,2.073242,3.154297,0.484375,-0.3764648,-0.2412109
1434,-153.8125,33.5,248.625,-0.6367188,2.034668,3.11084,0.484375,-0.3764648,-0.2412109
1435,-170.1875,32.5625,238.9375,-0.6645508,2.04248,3,0.4873047,-0.3789063,-0.2358398
1436,-179.0625,35.8125,228.125,-0.6010742,2.026855,2.928711,0.4819336,-0.3686523,-0.2387695
1437,-182.1875,48.3125,218.1875,-0.6328125,1.960938,2.849609,0.4819336,-0.3686523,-0.2387695
1438,-186.125,66.25,213.4375,-0.5610352,1.92627,2.830078,0.4951172,-0.3662109,-0.2358398
1439,-192.75,78.75,212,-0.5371094,1.910645,2.723145,0.5058594,-0.3608398,-0.2255859
1440,-201.25,86.375,209.4375,-0.5014648,1.930176,2.660156,0.5058594,-0.3608398,-0.2255859
1441,-208.625,93.4375,206.0625,-0.4619141,1.910645,2.533691,0.5166016,-0.3505859,-0.2177734
1442,-214.0625,104.6875,199.5,-0.4736328,1.945801,2.517578,0.5166016,-0.3505859,-0.2177734
1443,-218.625,127,192.4375,-0.4775391,1.964844,2.517578,0.5297852,-0.3432617,-0.2124023
1444,-223.25,152.4375,182.8125,-0.5175781,1.980469,2.438965,0.543457,-0.3300781,-0.1806641
1445,-230.8125,173.75,169.875,-0.5771484,1.992188,2.308105,0.543457,-0.3300781,-0.1806641
1446,-238.125,191.4375,156.5,-0.5332031,1.988281,2.213379,0.5620117,-0.3198242,-0.1518555
1447,-245.6875,203.75,143.4375,-0.5014648,1.953613,2.047363,0.5620117,-0.3198242,-0.1518555
1448,-254,210,132.9375,-0.4458008,1.96875,1.901367,0.5888672,-0.3276367,-0.1386719
1449,-261.375,211.125,123.125,-0.4140625,1.922363,1.849609,0.6049805,-0.2919922,-0.1015625
1450,-268.0625,208.5625,115.6875,-0.4057617,1.883789,1.695801,0.6049805,-0.2919922,-0.1015625
1451,-275.375,205.25,105.8125,-0.3422852,1.883789,1.63623,0.6396484,-0.296875,-0.078125
1452,-276.75,204.8125,97.1875,-0.3144531,1.806641,1.561035,0.6499023,-0.2866211,-0.05175781
1453,-278.5,209.3125,91.3125,-0.2744141,1.76416,1.521973,0.6499023,-0.2866211,-0.05175781
1454,-279.9375,214.5,87.3125,-0.2226563,1.760254,1.40332,0.6552734,-0.2763672,-0.006835938
1455,-281.1875,216.0625,80.125,-0.21875,1.771973,1.34375,0.6552734,-0.2763672,-0.006835938
1456,-283.625,213.8125,72.3125,-0.1948242,1.729492,1.20166,0.6796875,-0.2792969,0.01074219
1457,-284.0625,214.5625,66.875,-0.1552734,1.628906,1.126465,0.6928711,-0.2661133,0.04785156
1458,-279.25,216.75,63,-0.1313477,1.613281,0.9526367,0.6928711,-0.2661133,0.04785156
1459,-271.3125,213.9375,60.25,-0.06787109,1.512695,0.7866211,0.6982422,-0.2661133,0.08984375
1460,-259,215.5,61.4375,-0.04003906,1.408691,0.6362305,0.6982422,-0.2661133,0.08984375
1461,-246.25,223.875,65.875,-0.04394531,1.34668,0.5693359,0.7167969,-0.253418,0.1137695
1462,-232.3125,237.375,72.1875,-0.05957031,1.273438,0.4780273,0.7167969,-0.253418,0.1137695
1463,-215.875,253.3125,78.3125,-0.1235352,1.227051,0.3203125,0.7167969,-0.253418,0.1137695
