Packet number,Gyroscope X (deg/s),Gyroscope Y (deg/s),Gyroscope Z (deg/s),Accelerometer X (g),Accelerometer Y (g),Accelerometer Z (g),Magnetometer X (G),Magnetometer Y (G),Magnetometer Z (G)
114,8.0625,13.4375,-4.125,0.1030273,0.1064453,0.9130859,0.190918,-0.1948242,-0.2124023
115,11.625,9.6875,25.5,0.09082031,0.137207,0.8535156,0.1987305,-0.199707,-0.2202148
116,11.4375,13.6875,26.25,0.06738281,0.1259766,0.7944336,0.1987305,-0.199707,-0.2202148
117,12,18.375,26.125,0.05126953,0.1606445,0.8022461,0.1962891,-0.2021484,-0.2202148
118,14.5,21.9375,25.9375,0.03955078,0.1567383,0.7749023,0.2148438,-0.2021484,-0.2255859
119,15.875,25.125,24.625,0.015625,0.1181641,0.7788086,0.2148438,-0.2021484,-0.2255859
120,15.8125,28.1875,22.875,0,0.1181641,0.7548828,0.2070313,-0.199707,-0.2255859
121,14.875,32,20.6875,-0.02783203,0.152832,0.7431641,0.2070313,-0.199707,-0.2255859
122,13.875,35.625,18.5625,-0.03564453,0.08740234,0.7231445,0.2094727,-0.2099609,-0.2202148
123,13.875,40.5,17.1875,-0.04785156,0.09863281,0.671875,0.2231445,-0.215332,-0.2177734
124,15.6875,46.875,16.8125,-0.05566406,0.09082031,0.6362305,0.2231445,-0.215332,-0.2177734
125,17.6875,52.75,16.0625,-0.05566406,0.08349609,0.671875,0.2255859,-0.215332,-0.2255859
126,18.4375,58.8125,14.9375,-0.09570313,0.1064453,0.644043,0.230957,-0.215332,-0.2202148
127,20.8125,63.4375,14.9375,-0.1035156,0.1298828,0.6640625,0.230957,-0.215332,-0.2202148
128,27.125,63.875,15.4375,-0.1274414,0.1064453,0.6796875,0.2441406,-0.2075195,-0.2124023
129,35.0625,62.9375,15.6875,-0.1474609,0.1298828,0.6757813,0.2441406,-0.2075195,-0.2124023
130,41.875,63.3125,15.75,-0.1235352,0.07177734,0.6679688,0.2441406,-0.2075195,-0.2124023
131,45.875,62.1875,14.9375,-0.1235352,0.1220703,0.6835938,0.2602539,-0.2329102,-0.2177734
132,47.6875,60.75,14.125,-0.1552734,0.07568359,0.7114258,0.2602539,-0.2329102,-0.2177734
133,46.875,57,11.9375,-0.175293,0.06396484,0.7270508,0.2602539,-0.2329102,-0.2177734
134,41.6875,53.4375,10,-0.190918,0.07568359,0.699707,0.2602539,-0.2329102,-0.2177734
135,37.9375,49.1875,7.625,-0.1831055,0.05224609,0.8261719,0.2685547,-0.2280273,-0.2124023
136,29.875,50.4375,5.25,-0.1513672,0.03710938,0.8261719,0.2685547,-0.2280273,-0.2124023
137,18.75,56.5625,3.0625,-0.203125,0.09863281,0.8417969,0.2685547,-0.2280273,-0.2124023
138,16.8125,60.625,1.375,-0.2348633,0.08740234,0.7983398,0.2788086,-0.2353516,-0.2255859
139,23.875,59.6875,-0.1875,-0.2744141,0.07568359,0.8378906,0.2788086,-0.2353516,-0.2255859
140,29,55.6875,-0.9375,-0.246582,0.05615234,0.8974609,0.2788086,-0.2353516,-0.2255859
141,29,48.8125,-2.1875,-0.2626953,0.08740234,0.9604492,0.2949219,-0.2431641,-0.2226563
142,26.375,42.5,-4.5625,-0.2666016,0.07568359,1.015625,0.2949219,-0.2431641,-0.2226563
143,20.5,39.6875,-5.875,-0.2426758,0.04443359,1,0.2949219,-0.2431641,-0.2226563
144,12.625,39.1875,-6.875,-0.2705078,0.02929688,1.063477,0.2949219,-0.2456055,-0.2124023
145,6.125,42.125,-7.25,-0.2944336,0.04833984,1.071289,0.2949219,-0.2456055,-0.2124023
146,2.25,45.375,-7.4375,-0.2744141,0.02929688,1.023926,0.2949219,-0.2456055,-0.2124023
147,0.375,46.4375,-7.5625,-0.3066406,0.06787109,1.019531,0.2949219,-0.2456055,-0.2124023
148,0.5625,47.375,-5.875,-0.2866211,0.05615234,1.043457,0.3085938,-0.2431641,-0.2070313
149,1.25,49,-3.25,-0.2827148,0.04833984,1.075195,0.3085938,-0.2431641,-0.2070313
150,-4.5,51.625,-0.1875,-0.2744141,0.01757813,1.11084,0.3085938,-0.2431641,-0.2070313
151,-11.9375,53.125,3.625,-0.2666016,0.04833984,1.122559,0.3164063,-0.2485352,-0.2094727
152,-13.125,49.0625,6.25,-0.2827148,0.06396484,1.138184,0.3164063,-0.2485352,-0.2094727
153,-12.125,41.75,6.3125,-0.2827148,0.06787109,1.154297,0.3164063,-0.2485352,-0.2094727
154,-13,36.625,5.8125,-0.3066406,0.02929688,1.197754,0.3325195,-0.2456055,-0.2016602
155,-13.125,35.3125,4.8125,-0.3344727,0.03320313,1.193848,0.3325195,-0.2456055,-0.2016602
156,-9.8125,32.8125,1.875,-0.3422852,0.08740234,1.249023,0.3325195,-0.2456055,-0.2016602
157,-6,25.0625,-3,-0.394043,0.06787109,1.209473,0.3540039,-0.2382813,-0.1992188
158,-4.3125,17.8125,-8.875,-0.3740234,0.04443359,1.225098,0.3540039,-0.2382813,-0.1992188
159,-6.6875,15.5625,-13.5625,-0.3540039,0.07958984,1.288574,0.3378906,-0.2431641,-0.1992188
160,-8.875,15.3125,-16.1875,-0.3344727,0.05615234,1.300293,0.3378906,-0.2431641,-0.1992188
161,-8.25,11.875,-19.1875,-0.3701172,0.05615234,1.284668,0.3349609,-0.2280273,-0.2016602
162,-9.3125,5.3125,-22.3125,-0.3222656,0.03320313,1.308105,0.3271484,-0.2329102,-0.2045898
163,-11.25,0.8125,-24.375,-0.2827148,0.04443359,1.335938,0.3271484,-0.2329102,-0.2045898
164,-10.0625,-2.25,-25,-0.2587891,0.02929688,1.272949,0.3432617,-0.215332,-0.1938477
165,-4.6875,-6.1875,-23.5625,-0.2587891,0.02148438,1.249023,0.3432617,-0.215332,-0.1938477
166,1.6875,-8.1875,-21,-0.2270508,0.01367188,1.237305,0.3486328,-0.2329102,-0.1962891
167,7,-7.5,-15.8125,-0.1831055,0.03710938,1.225098,0.340332,-0.2202148,-0.1938477
168,8.375,-3.5625,-10.75,-0.2148438,0.05224609,1.268555,0.340332,-0.2202148,-0.1938477
169,10,1.125,-5.875,-0.2548828,0.07177734,1.268555,0.3457031,-0.2250977,-0.1962891
170,13.75,4.8125,-3.25,-0.2705078,0.08349609,1.29248,0.340332,-0.2250977,-0.2045898
171,14.9375,10.75,-2.375,-0.2788086,0.05615234,1.335938,0.340332,-0.2250977,-0.2045898
172,13.25,15.3125,-2.6875,-0.3066406,0.07568359,1.36377,0.3349609,-0.2202148,-0.1938477
173,12.25,14.5625,-4.75,-0.3261719,0.07568359,1.351563,0.3349609,-0.2202148,-0.1938477
174,10.5,7.375,-8.4375,-0.3305664,0.07568359,1.415039,0.3457031,-0.2250977,-0.2016602
175,6.875,1.5625,-11.5,-0.3305664,0.06396484,1.43457,0.3486328,-0.2202148,-0.2016602
176,-0.0625,-1.8125,-14.125,-0.3144531,0.03320313,1.391113,0.3486328,-0.2202148,-0.2016602
177,-4.4375,-3.8125,-15.6875,-0.3144531,0.06787109,1.40332,0.3432617,-0.2177734,-0.2070313
179,-5,-4.8125,-15.6875,-0.3500977,0.05615234,1.324219,0.3432617,-0.2177734,-0.2070313
180,-1.5,-8.6875,-15.25,-0.2983398,0.1142578,1.3125,0.3349609,-0.2250977,-0.2070313
181,2.4375,-14.25,-16.1875,-0.2705078,0.07177734,1.300293,0.340332,-0.2124023,-0.2124023
182,3.25,-17.1875,-17.3125,-0.2866211,0.08349609,1.328125,0.340332,-0.2124023,-0.2124023
183,2.9375,-14.9375,-17.6875,-0.3222656,0.05615234,1.359863,0.3457031,-0.215332,-0.2070313
184,2.5625,-11.4375,-18.625,-0.3305664,0.09082031,1.359863,0.3378906,-0.2250977,-0.2070313
185,0,-7.4375,-20.25,-0.3144531,0.07568359,1.34375,0.3378906,-0.2250977,-0.2070313
186,-3.625,-2.1875,-21.6875,-0.3183594,0.1103516,1.347656,0.3378906,-0.2226563,-0.1938477
187,-7.75,-0.875,-24.25,-0.3144531,0.06396484,1.34375,0.3378906,-0.2226563,-0.1938477
188,-9.1875,-3.5625,-26.5,-0.2983398,0.1025391,1.339844,0.3325195,-0.2124023,-0.2070313
189,-9.6875,-6.8125,-29.4375,-0.2866211,0.1064453,1.355957,0.3325195,-0.215332,-0.2045898
190,-11.6875,-9.25,-29.5625,-0.3066406,0.1220703,1.347656,0.3325195,-0.215332,-0.2045898
191,-12.625,-11.1875,-29.0625,-0.2509766,0.1064453,1.3125,0.3349609,-0.2075195,-0.2094727
192,-13.5,-14.375,-28.125,-0.2827148,0.1181641,1.320313,0.3349609,-0.2075195,-0.2094727
193,-13.375,-19.375,-26.625,-0.2509766,0.1181641,1.320313,0.3188477,-0.2075195,-0.2045898
194,-13.4375,-22,-23.875,-0.2348633,0.07958984,1.332031,0.3295898,-0.2021484,-0.1938477
195,-13.875,-20.4375,-20.875,-0.2705078,0.04443359,1.308105,0.3295898,-0.2021484,-0.1938477
196,-14,-19.4375,-18.6875,-0.2705078,0.07177734,1.304199,0.3164063,-0.1972656,-0.2177734
197,-15.375,-17.5625,-17.25,-0.2626953,0.06005859,1.351563,0.3164063,-0.1918945,-0.2070313
198,-17.1875,-12.875,-16,-0.2744141,0.06396484,1.347656,0.3164063,-0.1918945,-0.2070313
199,-18.625,-8.6875,-15.6875,-0.3027344,0.06787109,1.351563,0.3139648,-0.1918945,-0.2094727
200,-19.4375,-3.8125,-16.4375,-0.3183594,0.03710938,1.34375,0.3139648,-0.1918945,-0.2094727
201,-20.3125,-1.9375,-17.9375,-0.3305664,0.07958984,1.367676,0.3139648,-0.1918945,-0.2124023
202,-19.375,-5.8125,-20.75,-0.3344727,0.06005859,1.351563,0.3110352,-0.1845703,-0.2045898
203,-18.5,-12,-22.6875,-0.2905273,0.04833984,1.407227,0.3110352,-0.1845703,-0.2045898
204,-20.875,-14.5625,-23.125,-0.2509766,0.04833984,1.462402,0.3110352,-0.1816406,-0.1992188
205,-22.8125,-15.875,-22.625,-0.230957,0.04443359,1.430664,0.3110352,-0.1816406,-0.1992188
206,-23.4375,-16.25,-21.375,-0.2509766,0.1025391,1.391113,0.3056641,-0.1816406,-0.2045898
207,-22.8125,-15.125,-19.375,-0.2587891,0.07958984,1.407227,0.3085938,-0.1743164,-0.2045898
208,-22.375,-12.4375,-17.375,-0.21875,0.06396484,1.39502,0.3085938,-0.1743164,-0.2045898
209,-24.625,-5.625,-14.125,-0.230957,0.05224609,1.379395,0.3085938,-0.1743164,-0.1914063
210,-26.625,1.4375,-11.3125,-0.2905273,0.08349609,1.379395,0.3056641,-0.1767578,-0.1992188
211,-29,4.6875,-10.5625,-0.2866211,0.06787109,1.40332,0.3056641,-0.1767578,-0.1992188
212,-32.3125,6,-11.375,-0.2666016,0.08740234,1.39502,0.3032227,-0.1665039,-0.2016602
213,-33.0625,8.375,-12.875,-0.3422852,0.07958984,1.391113,0.3032227,-0.1665039,-0.2016602
214,-30.125,9.125,-14.9375,-0.2944336,0.05615234,1.387207,0.3085938,-0.1665039,-0.2045898
215,-25.625,11.375,-16.4375,-0.3144531,0.02148438,1.383301,0.3085938,-0.1640625,-0.1914063
216,-20.8125,17.3125,-17.0625,-0.2827148,0.005859375,1.442871,0.3085938,-0.1640625,-0.1914063
217,-18.625,21.125,-17,-0.2705078,-0.02832031,1.442871,0.3056641,-0.1484375,-0.1992188
218,-21.6875,21.4375,-17.1875,-0.2944336,0.01367188,1.39502,0.3056641,-0.1484375,-0.1992188
219,-24.0625,21.4375,-17.9375,-0.3105469,-0.004882813,1.411133,0.3032227,-0.1665039,-0.1938477
220,-23.1875,18.4375,-19.6875,-0.3105469,-0.004882813,1.332031,0.3032227,-0.1538086,-0.1860352
221,-18,12.1875,-22.875,-0.3261719,-0.0009765625,1.3125,0.3032227,-0.1538086,-0.1860352
222,-11.4375,3.4375,-27.125,-0.3222656,-0.02050781,1.280762,0.3110352,-0.1484375,-0.1962891
223,-4.75,-5.25,-32,-0.3461914,0.01367188,1.280762,0.3056641,-0.1513672,-0.1831055
224,0,-12.0625,-36.875,-0.3461914,0.01367188,1.300293,0.3056641,-0.1513672,-0.1831055
225,2.875,-17.375,-41.1875,-0.3461914,0.01757813,1.280762,0.3110352,-0.1538086,-0.1992188
226,5.25,-22.375,-44.25,-0.3344727,0.01367188,1.300293,0.3110352,-0.1538086,-0.1992188
227,6.5625,-25.25,-45.8125,-0.2744141,0.005859375,1.320313,0.2949219,-0.1459961,-0.1831055
228,6.1875,-24.4375,-44.5,-0.2666016,0.01757813,1.324219,0.2895508,-0.1459961,-0.1884766
229,7.4375,-22.1875,-40.25,-0.21875,-0.04394531,1.391113,0.2895508,-0.1459961,-0.1884766
230,8.875,-15.875,-34,-0.190918,-0.02050781,1.415039,0.300293,-0.15625,-0.1884766
231,8.375,-6.8125,-25.625,-0.1552734,-0.01660156,1.43457,0.300293,-0.15625,-0.1884766
232,5.5,1.875,-17.0625,-0.190918,-0.008789063,1.474121,0.2788086,-0.1459961,-0.1884766
233,1,7.3125,-9,-0.1992188,-0.02050781,1.474121,0.2895508,-0.1435547,-0.1914063
234,-1.4375,8.5625,-1.8125,-0.175293,-0.02441406,1.462402,0.2895508,-0.1435547,-0.1914063
235,-2,6.5,4.375,-0.2109375,-0.01660156,1.45459,0.2871094,-0.1435547,-0.1938477
236,-4.125,3.9375,9.3125,-0.2109375,-0.04736328,1.470215,0.2895508,-0.1538086,-0.1914063
237,-5.1875,3.125,13.875,-0.2270508,-0.03613281,1.458496,0.2895508,-0.1538086,-0.1914063
238,-7.4375,5,18.875,-0.2348633,-0.02832031,1.438965,0.2895508,-0.1513672,-0.1914063
239,-9.4375,7.875,23.125,-0.21875,-0.04003906,1.39502,0.2895508,-0.1513672,-0.1914063
240,-11.9375,8.875,25.375,-0.2426758,-0.06298828,1.40332,0.2978516,-0.1381836,-0.1914063
241,-16.5625,10.75,27.375,-0.2548828,-0.04003906,1.399414,0.2895508,-0.1411133,-0.1992188
242,-18.5,13.875,29.4375,-0.2788086,-0.04736328,1.359863,0.2895508,-0.1411133,-0.1992188
244,-18.3125,15.25,30.5625,-0.2866211,-0.09375,1.324219,0.2949219,-0.1411133,-0.1831055
245,-17.8125,14.1875,30.3125,-0.2744141,-0.05126953,1.3125,0.2949219,-0.1411133,-0.1831055
246,-16.875,10.4375,29.1875,-0.2905273,-0.05126953,1.3125,0.300293,-0.1513672,-0.1938477
247,-16.75,5.3125,27.6875,-0.3027344,-0.06298828,1.316406,0.2978516,-0.1484375,-0.1831055
248,-17.25,0.875,26.0625,-0.246582,-0.04394531,1.308105,0.2978516,-0.1484375,-0.1831055
249,-18.4375,-1.75,24.9375,-0.2348633,-0.06689453,1.316406,0.2978516,-0.1538086,-0.1914063
250,-20.125,-2.75,24.6875,-0.2387695,-0.06689453,1.335938,0.300293,-0.1435547,-0.1806641
251,-21.1875,-2.5625,24.375,-0.21875,-0.08251953,1.3125,0.300293,-0.1435547,-0.1806641
252,-21.75,-2.5625,24.25,-0.2148438,-0.05908203,1.328125,0.3032227,-0.1538086,-0.1806641
253,-21.6875,-1.75,24.5,-0.2148438,-0.06689453,1.324219,0.3032227,-0.1538086,-0.1806641
254,-22.1875,-0.625,24.75,-0.230957,-0.08251953,1.300293,0.3032227,-0.1484375,-0.1806641
255,-23.4375,-0.0625,25.3125,-0.230957,-0.07470703,1.34375,0.300293,-0.1381836,-0.175293
256,-25.8125,0.75,25.25,-0.190918,-0.05908203,1.332031,0.300293,-0.1381836,-0.175293
257,-27.0625,0.375,25.0625,-0.21875,-0.07861328,1.29248,0.3110352,-0.1435547,-0.1728516
258,-28.0625,-1.375,24.5625,-0.1831055,-0.07861328,1.280762,0.3110352,-0.1435547,-0.1728516
259,-27.1875,-2.1875,24.0625,-0.1870117,-0.07080078,1.249023,0.3056641,-0.1381836,-0.1674805
260,-26.0625,-3.25,23.5,-0.190918,-0.1015625,1.209473,0.3085938,-0.1357422,-0.1806641
261,-25,-3.8125,23.375,-0.2226563,-0.07080078,1.225098,0.3085938,-0.1357422,-0.1806641
262,-23.4375,-5.4375,23.25,-0.1831055,-0.08251953,1.20166,0.3032227,-0.1381836,-0.1782227
263,-22.5625,-5.375,22.875,-0.2070313,-0.08251953,1.233398,0.3139648,-0.1381836,-0.1650391
264,-22.3125,-3.875,23.5625,-0.2148438,-0.09375,1.260742,0.3139648,-0.1381836,-0.1650391
265,-22.0625,-1.5,24.5,-0.2109375,-0.09375,1.221191,0.3032227,-0.1308594,-0.1704102
266,-22.5,0.5625,24.75,-0.2109375,-0.09765625,1.237305,0.3032227,-0.1308594,-0.1704102
267,-22.9375,1,25.3125,-0.2148438,-0.109375,1.20166,0.3110352,-0.1357422,-0.1621094
268,-22,0.375,26.0625,-0.2226563,-0.1054688,1.225098,0.3110352,-0.1254883,-0.1704102
269,-20.0625,-0.5625,26.8125,-0.2109375,-0.1210938,1.221191,0.3110352,-0.1254883,-0.1704102
270,-16.9375,-2.75,27.25,-0.190918,-0.09375,1.193848,0.3139648,-0.1279297,-0.1674805
271,-13.875,-5.9375,27.3125,-0.2148438,-0.09765625,1.173828,0.3139648,-0.1279297,-0.1674805
272,-12.3125,-7.5,27.25,-0.2270508,-0.09375,1.20166,0.3056641,-0.1357422,-0.159668
273,-10.5,-7.875,28.5625,-0.2348633,-0.06689453,1.189941,0.3139648,-0.1381836,-0.1621094
274,-6.125,-8.5625,30.125,-0.2148438,-0.109375,1.185547,0.3139648,-0.1381836,-0.1621094
275,-2.625,-11.3125,30.3125,-0.2426758,-0.09375,1.138184,0.3085938,-0.1279297,-0.159668
276,0.0625,-18.0625,28.375,-0.230957,-0.07080078,1.166016,0.3164063,-0.1308594,-0.1518555
277,3.5,-22.5625,27.1875,-0.2348633,-0.08984375,1.134277,0.3164063,-0.1308594,-0.1518555
278,5.375,-26.375,27.25,-0.246582,-0.07861328,1.146484,0.3164063,-0.1279297,-0.159668
279,8.5,-29.4375,27.75,-0.2270508,-0.09375,1.130371,0.3164063,-0.1279297,-0.159668
280,13.6875,-33.875,29.3125,-0.2348633,-0.05908203,1.138184,0.3085938,-0.1357422,-0.1704102
281,18.25,-39.5,30.375,-0.230957,-0.07861328,1.197754,0.3164063,-0.1459961,-0.1704102
282,20,-45.5,31.9375,-0.1948242,-0.07861328,1.221191,0.3164063,-0.1459961,-0.1704102
283,16.875,-48.4375,32.8125,-0.246582,-0.06298828,1.241211,0.3139648,-0.1435547,-0.175293
284,11.9375,-48.8125,31.75,-0.2426758,-0.06298828,1.229492,0.3139648,-0.1435547,-0.175293
285,6.75,-45.5625,29.75,-0.2548828,-0.04736328,1.25293,0.3056641,-0.1459961,-0.1704102
286,1.9375,-38.5,29.4375,-0.2744141,-0.03613281,1.272949,0.3085938,-0.1538086,-0.1831055
287,-1.875,-29.9375,28.375,-0.2666016,-0.04736328,1.237305,0.3085938,-0.1538086,-0.1831055
288,-3.0625,-23.625,26.8125,-0.2587891,-0.05908203,1.173828,0.3110352,-0.1513672,-0.1674805
289,-3.125,-20.0625,25.5625,-0.2788086,-0.05517578,1.134277,0.3056641,-0.15625,-0.1806641
290,-2.8125,-18.5,24.6875,-0.2509766,-0.03222656,1.102539,0.3056641,-0.15625,-0.1806641
291,-2.3125,-22.5,24.3125,-0.2387695,-0.03222656,1.071289,0.2978516,-0.15625,-0.1806641
292,3.125,-32.0625,22.1875,-0.203125,0.005859375,1.039551,0.2978516,-0.15625,-0.1806641
293,10.25,-45.25,19.75,-0.1992188,0.001953125,1.011719,0.300293,-0.15625,-0.1782227
294,15.1875,-59.1875,17.6875,-0.2226563,0.005859375,1.003906,0.2978516,-0.1640625,-0.175293
295,18.125,-72.9375,14.625,-0.190918,0.005859375,1.055176,0.2978516,-0.1640625,-0.175293
296,20,-84.9375,11.6875,-0.190918,-0.01660156,1.098633,0.2978516,-0.1586914,-0.175293
297,19.625,-92.9375,9.75,-0.1669922,-0.02832031,1.079102,0.2978516,-0.1586914,-0.175293
298,15.25,-96.1875,9.375,-0.1791992,-0.01660156,1.05127,0.2871094,-0.1665039,-0.1962891
299,12.8125,-98.625,9.3125,-0.1591797,-0.02441406,1.039551,0.2817383,-0.1713867,-0.1914063
300,16.75,-102.9375,9,-0.1513672,-0.02050781,0.9760742,0.2817383,-0.1713867,-0.1914063
301,23.4375,-106.5625,7.6875,-0.1513672,-0.02441406,0.9643555,0.265625,-0.1767578,-0.1831055
302,27,-107.375,5.9375,-0.1352539,-0.01269531,1.019531,0.2548828,-0.1665039,-0.1962891
303,27.25,-103.1875,5.3125,-0.1430664,-0.03222656,1.023926,0.2548828,-0.1665039,-0.1962891
304,24.125,-97.5,5.375,-0.1352539,-0.02441406,1.079102,0.2363281,-0.1767578,-0.2045898
305,20.5625,-93.3125,7.0625,-0.07958984,-0.01269531,1.019531,0.2363281,-0.1767578,-0.2045898
306,20.0625,-89.625,8.625,-0.02392578,-0.02832031,0.9960938,0.2338867,-0.1743164,-0.2070313
307,22.1875,-89.625,9.6875,-0.03173828,0.03320313,0.9921875,0.2231445,-0.1791992,-0.2124023
309,23.875,-96.75,7.5625,-0.02001953,-0.01660156,0.9052734,0.2231445,-0.1791992,-0.2124023
310,28.25,-107.125,5.25,-0.01611328,0.005859375,0.9091797,0.2148438,-0.1816406,-0.2070313
311,32.125,-115.25,2.8125,-0.02392578,-0.01660156,0.9287109,0.2148438,-0.1816406,-0.2070313
312,33.0625,-120.3125,1.4375,0.003417969,-0.03222656,0.9287109,0.2016602,-0.1845703,-0.2202148
313,35.3125,-121.0625,1.6875,0.015625,-0.02441406,0.9248047,0.1884766,-0.1894531,-0.2177734
314,34.375,-121.5625,2.0625,0.03955078,-0.05126953,0.9130859,0.1884766,-0.1894531,-0.2177734
315,31.3125,-120.625,4.5625,0.05126953,-0.01660156,0.8696289,0.1748047,-0.1948242,-0.2177734
316,26.9375,-115.0625,9.125,0.1030273,-0.008789063,0.9013672,0.1616211,-0.199707,-0.2280273
317,26,-108.3125,13.9375,0.1386719,0.001953125,0.9326172,0.1616211,-0.199707,-0.2280273
318,23.4375,-100.875,18.4375,0.1865234,-0.01660156,0.9013672,0.1430664,-0.199707,-0.2124023
319,19.125,-93.0625,22.8125,0.1704102,-0.01269531,0.940918,0.1430664,-0.199707,-0.2124023
320,14.9375,-81.6875,27.9375,0.2026367,-0.02832031,0.940918,0.1430664,-0.2075195,-0.2255859
321,-9.25,-66.5,37.875,0.3378906,0.07568359,0.9682617,0.1401367,-0.2075195,-0.2226563
322,-72.8125,-33.625,54.25,0.3300781,-0.2099609,1.11084,0.1401367,-0.2075195,-0.2226563
323,-43.375,-30.125,60.8125,0.3696289,0.1025391,1.280762,0.1323242,-0.2050781,-0.2280273
324,-19.625,-6.125,75.9375,0.3061523,-0.1518555,1.023926,0.1323242,-0.2050781,-0.2280273
325,-36.5625,-3.8125,87.75,0.3378906,0.07568359,1.015625,0.1240234,-0.1972656,-0.2177734
326,-26.125,-2,96.125,0.2421875,-0.02832031,0.9208984,0.1293945,-0.1894531,-0.2255859
327,-8.25,-1.375,105.3125,0.1987305,-0.01269531,0.9248047,0.1293945,-0.1894531,-0.2255859
328,5.8125,-2.25,109,0.1469727,-0.008789063,0.956543,0.1401367,-0.1870117,-0.2280273
329,12.1875,-7,105.625,0.1108398,-0.04003906,0.9169922,0.1455078,-0.1870117,-0.2124023
330,13.125,-14.375,100.125,0.07128906,-0.05908203,0.9804688,0.1455078,-0.1870117,-0.2124023
331,11,-24.3125,94.6875,0.007324219,-0.09765625,0.9287109,0.1508789,-0.1894531,-0.2202148
332,14.0625,-30.75,89.1875,-0.02392578,-0.09765625,0.956543,0.1508789,-0.1894531,-0.2202148
333,14.5,-38.0625,85.25,-0.0078125,-0.109375,0.9169922,0.1508789,-0.1894531,-0.2202148
334,15.75,-40.4375,80.1875,-0.00390625,-0.09765625,1,0.1401367,-0.1972656,-0.2202148
335,13.3125,-36.125,80.125,0.04345703,-0.1289063,1.019531,0.1401367,-0.1972656,-0.2202148
336,6.1875,-26.5625,83.375,0.05126953,-0.125,1.027832,0.1401367,-0.1972656,-0.2202148
337,0.125,-17.5625,85,0.1269531,-0.05517578,1.007813,0.1401367,-0.1972656,-0.2202148
338,3.625,-9.6875,84.5,0.1347656,-0.05126953,1.043457,0.1484375,-0.1972656,-0.2226563
339,11.8125,1.9375,84.4375,0.09912109,-0.08251953,1.098633,0.1484375,-0.1972656,-0.2226563
340,16.875,21.5,86.75,0.09082031,-0.07080078,1.150391,0.1484375,-0.1972656,-0.2226563
341,7.125,-9.25,70.375,0.6601563,0.4814453,-0.3945313,0.1533203,-0.2021484,-0.2280273
342,50.25,-26.625,70.5625,0.3896484,-0.0009765625,0.5336914,0.1533203,-0.2021484,-0.2280273
343,10.3125,8.5,73.4375,0.3896484,0.04833984,1.20166,0.1533203,-0.2021484,-0.2280273
344,-7.1875,31.6875,79.5,0.09521484,0.01367188,1.185547,0.1694336,-0.2124023,-0.230957
345,-13.3125,37.875,68.0625,0.05908203,0.06396484,1.122559,0.1694336,-0.2124023,-0.230957
346,6,33.3125,51.0625,0.08300781,-0.004882813,1.158203,0.1694336,-0.2124023,-0.230957
347,26.6875,14.875,40.5625,0.08691406,-0.05126953,1.114746,0.1669922,-0.2124023,-0.2226563
348,21.75,-23.375,50.125,-0.2226563,-0.2988281,0.2294922,0.1669922,-0.2124023,-0.2226563
349,0.125,-82.875,83.6875,-0.05566406,-0.5576172,0.9169922,0.1669922,-0.2124023,-0.2226563
350,28.6875,-91.25,168.9375,0.3178711,-0.09765625,1.260742,0.1669922,-0.2124023,-0.2226563
351,11.75,-61.25,138.4375,0.1787109,-0.09375,1.324219,0.1723633,-0.2124023,-0.2358398
352,21.6875,-48.0625,125.875,0.09912109,-0.2446289,1.245117,0.1723633,-0.2124023,-0.2358398
353,31.875,-41.125,136.5625,0.1904297,-0.2368164,1.213379,0.1723633,-0.2124023,-0.2358398
354,46.125,-36.625,142,0.1665039,-0.1826172,1.249023,0.1801758,-0.215332,-0.2226563
355,65.9375,-45.5625,137,0.1469727,-0.07861328,1.134277,0.1801758,-0.215332,-0.2226563
356,65.875,-48.8125,159.375,-0.3383789,-0.1289063,0.9248047,0.1801758,-0.215332,-0.2226563
357,12.75,-11.0625,240.25,0.05908203,0.08740234,1.043457,0.1748047,-0.2382813,-0.2280273
358,8.4375,-21.4375,229.1875,0.2504883,0.1259766,0.9487305,0.1748047,-0.2382813,-0.2280273
359,27.1875,-49.3125,182.25,0.3256836,0.06787109,0.9804688,0.1748047,-0.2382813,-0.2280273
360,37.125,-67.25,142.25,0.2739258,-0.05908203,0.984375,0.1777344,-0.2407227,-0.2280273
361,41,-61.0625,139.4375,0.2182617,-0.1401367,1.043457,0.1777344,-0.2407227,-0.2280273
362,42.4375,-40.4375,146.625,0.2104492,-0.1479492,0.972168,0.1987305,-0.253418,-0.2436523
363,40.9375,-25.875,144.4375,0.2583008,-0.05908203,0.8974609,0.1987305,-0.253418,-0.2436523
364,39.1875,-19.6875,139.5625,0.2421875,-0.07470703,0.8774414,0.1855469,-0.2509766,-0.2333984
365,34.5,-10.125,128.1875,0.2783203,-0.01660156,0.9052734,0.1831055,-0.2558594,-0.2358398
366,31.75,-5.375,121.8125,0.2783203,-0.05517578,0.8852539,0.1831055,-0.2558594,-0.2358398
367,29,-1.625,124.125,0.3139648,-0.1132813,0.8813477,0.190918,-0.2714844,-0.2358398
368,42.125,-10.625,133.375,0.3061523,-0.1054688,0.956543,0.190918,-0.2714844,-0.2358398
369,46.8125,0,135.5,0.3100586,-0.09765625,1.035645,0.1884766,-0.2714844,-0.2280273
370,46,16.375,136.8125,0.2661133,-0.109375,0.956543,0.1933594,-0.2763672,-0.2436523
371,39.8125,25.875,150.5,0.2304688,-0.109375,0.9013672,0.1933594,-0.2763672,-0.2436523
372,27.875,26.6875,175.25,0.2504883,-0.1210938,0.9013672,0.2016602,-0.2841797,-0.2543945
374,8.125,22.25,191.8125,0.3256836,-0.1289063,0.8891602,0.2148438,-0.2866211,-0.2412109
375,-7.4375,16.4375,180.9375,0.4052734,-0.144043,0.8891602,0.2148438,-0.2866211,-0.2412109
376,-7.8125,12.5625,152.5,0.425293,-0.1171875,0.9130859,0.2124023,-0.2944336,-0.2358398
377,5.3125,14.125,122.3125,0.3774414,-0.1132813,0.9248047,0.2124023,-0.2944336,-0.2358398
378,21.875,24.0625,110.25,0.2783203,-0.1479492,0.8930664,0.2231445,-0.3022461,-0.2490234
379,18.9375,34.6875,117.125,0.3178711,-0.1171875,0.8535156,0.2285156,-0.2944336,-0.246582
380,8.375,39.0625,127.6875,0.2822266,-0.1132813,0.8061523,0.2285156,-0.2944336,-0.246582
381,-5.8125,36.4375,130.875,0.2504883,-0.07470703,0.8144531,0.2416992,-0.2944336,-0.2358398
382,-18.375,28.25,123.4375,0.3735352,-0.05908203,0.8457031,0.2416992,-0.2944336,-0.2358398
383,-30.0625,22.0625,101.6875,0.3417969,-0.04736328,0.8891602,0.2524414,-0.2993164,-0.2333984
384,-29.0625,9.5,90.625,0.2822266,-0.1289063,0.9130859,0.2363281,-0.2993164,-0.2387695
385,-26.375,9.8125,85.625,0.3417969,-0.1557617,1.003906,0.2363281,-0.2993164,-0.2387695
386,-29.3125,12.0625,84.4375,0.2900391,-0.1132813,1,0.2524414,-0.3046875,-0.2436523
387,-35.25,14,83.75,0.3061523,-0.1362305,1.047363,0.2631836,-0.3046875,-0.246582
388,-39.875,17.0625,78,0.2861328,-0.1362305,1.098633,0.2631836,-0.3046875,-0.246582
389,-40,18.5,65.875,0.3017578,-0.1943359,1.09082,0.2602539,-0.3022461,-0.2333984
390,-19.875,7.8125,35.875,0.3100586,-0.2602539,1.154297,0.2602539,-0.3022461,-0.2333984
391,3.5,-3.625,20.125,0.2265625,-0.4223633,1.138184,0.265625,-0.2919922,-0.2333984
392,0.25,8.0625,26.6875,0.1191406,-0.46875,1.098633,0.2685547,-0.2944336,-0.230957
393,-3.875,18,45.625,0.1469727,-0.3720703,1.166016,0.2685547,-0.2944336,-0.230957
394,-12.5,30.1875,49.125,0.1987305,-0.2368164,1.162109,0.2631836,-0.296875,-0.2358398
395,-12.9375,33.3125,37.1875,0.1748047,-0.1674805,1.094727,0.2631836,-0.296875,-0.2358398
396,-15.625,27.0625,23.375,0.2822266,-0.1713867,1,0.2709961,-0.3022461,-0.2436523
397,-20.1875,15.8125,17.4375,0.1826172,-0.2216797,1.031738,0.2739258,-0.3022461,-0.230957
398,-30.5625,11.125,23.0625,0.1826172,-0.1904297,1.011719,0.2739258,-0.3022461,-0.230957
399,-55.5625,10.625,33.875,0.1269531,-0.1518555,1.003906,0.2763672,-0.2919922,-0.2358398
400,-67.625,5.9375,49.625,0.1987305,-0.1943359,1.09082,0.2949219,-0.2841797,-0.2358398
401,-52.4375,-1.1875,74.8125,0.1586914,-0.2250977,1.130371,0.2949219,-0.2841797,-0.2358398
402,-38.4375,-6.4375,89.25,0.222168,-0.2832031,1.197754,0.2841797,-0.2866211,-0.2226563
403,-20.875,-4.4375,94.6875,0.2661133,-0.2792969,1.280762,0.2841797,-0.2866211,-0.2226563
404,-3.6875,0.1875,96.5,0.2661133,-0.3413086,1.233398,0.2817383,-0.2817383,-0.2280273
405,4.375,5.375,103.4375,0.2822266,-0.3720703,1.193848,0.2817383,-0.2841797,-0.2358398
406,6.9375,7.8125,105.8125,0.2739258,-0.2714844,1.126465,0.2817383,-0.2841797,-0.2358398
407,-5.4375,7.75,88.5,0.3896484,-0.2216797,1.083008,0.2978516,-0.2919922,-0.2255859
408,-13.75,19,65.8125,0.3496094,-0.1943359,1.193848,0.2978516,-0.2919922,-0.2255859
409,-11.25,40.125,52.6875,0.2900391,-0.2949219,1.213379,0.2841797,-0.2866211,-0.2333984
410,-7.6875,66.1875,45.0625,0.262207,-0.3105469,1.185547,0.2978516,-0.2919922,-0.230957
411,-12.4375,86.875,40,0.2382813,-0.2949219,1.031738,0.2978516,-0.2919922,-0.230957
412,-27.6875,97.5,38,0.1865234,-0.2910156,0.9682617,0.3110352,-0.2841797,-0.2177734
413,-37.4375,97.25,38.3125,0.1508789,-0.2792969,0.8974609,0.3139648,-0.2919922,-0.2202148
414,-40.9375,75.125,41.0625,0.1191406,-0.3139648,0.6523438,0.3139648,-0.2919922,-0.2202148
415,-38.125,43.0625,45.375,0.07910156,-0.3256836,0.6679688,0.3164063,-0.2841797,-0.2177734
416,-30.375,16.625,49.8125,0.06298828,-0.2871094,0.7548828,0.3164063,-0.2841797,-0.2177734
417,-16.625,6.875,50.75,0.06298828,-0.2832031,0.8852539,0.3349609,-0.2890625,-0.2070313
418,-8.0625,9.75,50.375,0.03515625,-0.2524414,0.9326172,0.3432617,-0.2944336,-0.2148438
419,-7.375,15.75,49.6875,0.05517578,-0.2290039,0.9130859,0.3432617,-0.2944336,-0.2148438
420,-12.5,16.9375,48.875,0.04345703,-0.2250977,0.972168,0.3271484,-0.2890625,-0.2148438
421,-17.5625,13.3125,47.0625,0.03125,-0.2641602,0.9448242,0.3271484,-0.2890625,-0.2148438
422,-19.875,8.5625,44.875,0.03125,-0.2329102,0.972168,0.3271484,-0.296875,-0.2124023
423,-21.25,4.8125,43.3125,0.05517578,-0.2485352,0.9960938,0.3432617,-0.2890625,-0.2124023
424,-23.125,3.5,42.375,0.03125,-0.2250977,1.031738,0.3432617,-0.2890625,-0.2124023
425,-24.4375,4.5,40.125,0.03125,-0.1826172,1.007813,0.3349609,-0.2944336,-0.2177734
426,-22.6875,6.5,34.4375,0.04345703,-0.2290039,1.059082,0.340332,-0.2841797,-0.2070313
427,-15.5625,8.0625,30,0.04345703,-0.2602539,1.094727,0.340332,-0.2841797,-0.2070313
428,-13,8.4375,27.5625,0.03515625,-0.2714844,1.075195,0.3457031,-0.2763672,-0.2094727
429,-10.625,10.1875,25.125,0.0234375,-0.3105469,1.063477,0.3457031,-0.2763672,-0.2094727
430,-3.6875,15.375,23.8125,0.0234375,-0.3256836,1.106934,0.3540039,-0.2866211,-0.2045898
431,4.1875,19.6875,21.4375,0.02734375,-0.3105469,1.059082,0.3486328,-0.2763672,-0.2094727
432,3.5,19.0625,19.1875,0.04345703,-0.2988281,0.9643555,0.3486328,-0.2763672,-0.2094727
433,-2.375,13.625,16.4375,0.0234375,-0.2485352,0.9487305,0.3540039,-0.2944336,-0.2094727
434,-4.5,6.625,12.875,0.03125,-0.2714844,1,0.3540039,-0.2944336,-0.2094727
435,-7.375,0.125,10.0625,0.02734375,-0.2602539,1.003906,0.3618164,-0.2919922,-0.2094727
436,-11.625,-3.125,8.5625,0.04345703,-0.2563477,1.035645,0.3618164,-0.2993164,-0.1992188
437,-14.625,-2.4375,7.875,0.03515625,-0.3334961,1.094727,0.3618164,-0.2993164,-0.1992188
439,-12.125,0.3125,7.5625,0.03955078,-0.3413086,1.094727,0.3510742,-0.2890625,-0.2070313
440,-11.75,1.1875,8,0.01953125,-0.3066406,1.055176,0.3510742,-0.2817383,-0.2124023
441,-12.75,-0.5,9.0625,0.03125,-0.2641602,1.083008,0.3510742,-0.2817383,-0.2124023
442,-10,-1.25,8.9375,0.0234375,-0.3178711,1.063477,0.3486328,-0.2919922,-0.2045898
443,-7.9375,-2.25,8.875,0.015625,-0.3027344,1.05127,0.3486328,-0.2919922,-0.2045898
444,-7.1875,-1.5625,8.25,0.03515625,-0.3027344,1.063477,0.3510742,-0.2919922,-0.2148438
445,-8.125,-2.5625,8.375,0.015625,-0.3139648,1.019531,0.3510742,-0.2866211,-0.2094727
446,-8.75,-6.5,8.3125,0.03515625,-0.2910156,0.9804688,0.3510742,-0.2866211,-0.2094727
447,-4.875,-9.8125,7.4375,0.02734375,-0.2792969,1.05127,0.3540039,-0.2739258,-0.2045898
448,1.6875,-10.5625,5.0625,0.01953125,-0.2832031,1.043457,0.3540039,-0.2739258,-0.2045898
449,7.75,-10.25,1.875,0.007324219,-0.2485352,1.079102,0.3510742,-0.2866211,-0.2016602
450,12.3125,-10.6875,0.0625,0.01123047,-0.2407227,1.075195,0.3510742,-0.2841797,-0.2094727
451,11.9375,-13.5625,-1.8125,0.003417969,-0.2675781,1.05127,0.3510742,-0.2841797,-0.2094727
452,5.6875,-16.9375,-2.875,0.0234375,-0.2753906,1.035645,0.3486328,-0.2841797,-0.1992188
453,-1.125,-17.75,-2.8125,0.04345703,-0.2988281,1.075195,0.3510742,-0.2866211,-0.1992188
454,-2.5625,-16.3125,-1.625,0.02734375,-0.3491211,1.063477,0.3510742,-0.2866211,-0.1992188
455,-2.1875,-16.25,0.3125,0.04345703,-0.3564453,1.075195,0.3510742,-0.2841797,-0.2094727
456,-0.5,-15.625,1.9375,0.05126953,-0.3295898,1.09082,0.3510742,-0.2841797,-0.2094727
457,2.375,-14.8125,3,0.05517578,-0.3374023,1.067383,0.3564453,-0.2841797,-0.2070313
458,5.6875,-13.1875,4.0625,0.05908203,-0.3217773,1.075195,0.3486328,-0.2792969,-0.2045898
459,9.875,-11.8125,4.375,0.01953125,-0.2910156,1.09082,0.3486328,-0.2792969,-0.2045898
460,14.8125,-10.125,3.1875,0.03955078,-0.2714844,1.086914,0.3349609,-0.2841797,-0.2177734
461,17.5,-8.75,2,0.0234375,-0.2641602,1.067383,0.3349609,-0.2841797,-0.2177734
462,19.25,-6.5,0.625,0.03955078,-0.2602539,1.083008,0.3510742,-0.2890625,-0.2070313
463,19.875,-4.625,-1.3125,0.04345703,-0.2602539,1.094727,0.3457031,-0.2841797,-0.2177734
464,20.5,-1.875,-3.9375,0.02734375,-0.2792969,1.079102,0.3457031,-0.2841797,-0.2177734
465,23,0.75,-5.0625,0.0234375,-0.2714844,1.122559,0.3457031,-0.2890625,-0.2094727
466,25.0625,4.0625,-6.25,0.01953125,-0.2714844,1.083008,0.3540039,-0.2944336,-0.2177734
467,23.8125,5.125,-6.25,0.04736328,-0.2792969,1.098633,0.3540039,-0.2944336,-0.2177734
468,22.0625,6.3125,-6.125,0.0234375,-0.2988281,1.083008,0.3349609,-0.3022461,-0.2177734
469,25.875,6.3125,-4.9375,0.03515625,-0.3178711,1.055176,0.3349609,-0.3022461,-0.2177734
470,29.75,4.9375,-4.5,0.007324219,-0.3217773,1.039551,0.3325195,-0.2944336,-0.2148438
471,27.1875,3,-3.9375,0.015625,-0.2753906,1.019531,0.340332,-0.3046875,-0.2177734
472,21.375,1.0625,-2.3125,0.007324219,-0.3066406,0.9882813,0.340332,-0.3046875,-0.2177734
473,18.8125,-0.625,-1.5625,0.02734375,-0.2563477,1.015625,0.3457031,-0.3046875,-0.2124023
474,18.3125,-1.1875,-2.125,0.03125,-0.2792969,1.035645,0.3457031,-0.3046875,-0.2124023
475,17.8125,-2.5,-1.5625,0.015625,-0.2792969,1.023926,0.340332,-0.3071289,-0.2094727
476,17.875,-3.875,-1.4375,0.05126953,-0.2714844,1.023926,0.3510742,-0.3071289,-0.2148438
477,18.25,-4.375,-1.8125,0.04736328,-0.2988281,1.05127,0.3510742,-0.3071289,-0.2148438
478,18.3125,-4.4375,-1.0625,0.06738281,-0.2753906,1.019531,0.3457031,-0.3095703,-0.2148438
479,11.4375,-9.25,0.625,0.07128906,-0.2524414,0.984375,0.3378906,-0.3149414,-0.2202148
480,5.625,-14.3125,1.125,0.1069336,-0.2753906,1.075195,0.3378906,-0.3149414,-0.2202148
481,8.6875,-16,2.625,0.06738281,-0.2832031,1.11084,0.3510742,-0.3071289,-0.2177734
482,14.625,-15.1875,2.5,0.09912109,-0.2602539,1.173828,0.3510742,-0.3071289,-0.2177734
483,17.875,-11.1875,2.125,0.1030273,-0.2871094,1.197754,0.3349609,-0.3173828,-0.2094727
484,22.5625,-4.3125,1.875,0.08691406,-0.2714844,1.209473,0.3325195,-0.3125,-0.2202148
485,28.6875,2.75,1.9375,0.07519531,-0.3295898,1.205566,0.3325195,-0.3125,-0.2202148
486,32.25,8.75,1.9375,0.09912109,-0.2753906,1.166016,0.3432617,-0.3227539,-0.2177734
487,31.125,12.875,2.3125,0.08300781,-0.2563477,1.146484,0.3432617,-0.3227539,-0.2177734
488,28.125,13.8125,4.375,0.09912109,-0.2407227,1.102539,0.3325195,-0.3227539,-0.2226563
489,29.625,14.125,5.5,0.06298828,-0.2910156,1.071289,0.340332,-0.3251953,-0.2177734
490,32.8125,13.3125,7.1875,0.1030273,-0.3105469,1.09082,0.340332,-0.3251953,-0.2177734
491,33.8125,11.75,9.4375,0.1030273,-0.3105469,1.035645,0.3378906,-0.3227539,-0.2148438
492,29.25,9.3125,11.25,0.09912109,-0.2792969,1,0.3325195,-0.3251953,-0.2226563
493,22.875,6.4375,13.0625,0.1147461,-0.2524414,1.031738,0.3325195,-0.3251953,-0.2226563
494,19.8125,5.375,13.8125,0.1191406,-0.2368164,1.083008,0.3378906,-0.340332,-0.2177734
495,19,4.0625,15.3125,0.1230469,-0.2524414,1.031738,0.3378906,-0.340332,-0.2177734
496,18.125,2.6875,17.4375,0.09082031,-0.2524414,1.05127,0.3432617,-0.3378906,-0.2202148
497,15.8125,-0.0625,20,0.08691406,-0.2290039,0.984375,0.3349609,-0.3432617,-0.2255859
498,133.9375,198.1875,8.5,-0.1196289,-0.9902344,5.150391,0.3349609,-0.3432617,-0.2255859
499,146.3125,292.625,29.1875,0.5327148,0.02929688,2.09082,0.3588867,-0.355957,-0.2226563
500,98.3125,350,-0.75,0.3696289,-0.03222656,1.762695,0.3588867,-0.355957,-0.2226563
501,98.8125,329.25,-10.1875,0.2739258,-0.1865234,0.2729492,0.3857422,-0.3583984,-0.2016602
502,-0.8125,62.5,2.5625,-0.02001953,-0.05126953,-0.8217773,0.4042969,-0.3710938,-0.1806641
504,12.1875,-39.5,13.75,-0.1948242,-0.2177734,-0.1459961,0.4042969,-0.3710938,-0.1806641
505,54.9375,-120.5,19.875,-0.1870117,-0.125,0.1381836,0.4204102,-0.3735352,-0.1938477
506,28.8125,-127,19.4375,-0.1713867,-0.09765625,0.3950195,0.4257813,-0.3789063,-0.1884766
507,-29.875,-114.375,22.5,-0.1831055,-0.1054688,0.5966797,0.4257813,-0.3789063,-0.1884766
508,-80.8125,-99.5625,25.5625,-0.1074219,-0.1289063,0.6958008,0.394043,-0.3813477,-0.1938477
509,-92.3125,-106.125,27.9375,-0.09960938,-0.159668,0.7587891,0.394043,-0.3813477,-0.1938477
510,-81.9375,-128.6875,28.75,-0.07568359,-0.1289063,0.8183594,0.394043,-0.3632813,-0.2016602
511,-73.0625,-155.75,28.625,-0.03564453,-0.06689453,0.9960938,0.3803711,-0.355957,-0.2070313
512,-64.875,-172.6875,25.5,0.01953125,-0.04394531,1.209473,0.3803711,-0.355957,-0.2070313
513,-54.4375,-166.75,19.4375,0.04736328,-0.04003906,1.458496,0.3696289,-0.3608398,-0.2255859
514,-45.4375,-137.0625,12.625,0.0234375,-0.02050781,1.600586,0.3696289,-0.3608398,-0.2255859
515,-40.1875,-98.1875,5.5625,0.05517578,-0.04003906,1.640137,0.3486328,-0.3608398,-0.230957
516,-29.4375,-59.1875,-3.6875,0.07519531,-0.04736328,1.723145,0.3325195,-0.3583984,-0.2255859
517,-12.1875,-25.4375,-12.8125,0.05908203,-0.08642578,1.687988,0.3325195,-0.3583984,-0.2255859
518,9,4.9375,-19.625,0.03515625,-0.125,1.628418,0.3295898,-0.3530273,-0.2280273
519,22.875,29.9375,-22.875,0.05126953,-0.1289063,1.442871,0.3295898,-0.3457031,-0.230957
520,27.125,46.75,-25.625,0.01953125,-0.09765625,1.3125,0.3295898,-0.3457031,-0.230957
521,26.75,55.8125,-28.625,-0.01611328,-0.1132813,1.197754,0.3271484,-0.3632813,-0.2333984
522,25.1875,57.3125,-30.875,-0.01611328,-0.1132813,1.09082,0.3271484,-0.3632813,-0.2333984
523,26.125,53.125,-32.75,-0.04785156,-0.1015625,1.011719,0.3457031,-0.3505859,-0.2255859
524,24.25,44.4375,-33.6875,-0.05175781,-0.1557617,0.8774414,0.3349609,-0.3530273,-0.2255859
525,18.1875,32.0625,-34.25,-0.05175781,-0.1674805,0.8339844,0.3349609,-0.3530273,-0.2255859
526,14.25,16.625,-34.9375,-0.05957031,-0.1557617,0.8100586,0.3540039,-0.355957,-0.2255859
527,11,0.75,-36.6875,-0.07958984,-0.1518555,0.8339844,0.3540039,-0.355957,-0.2255859
528,8.25,-11.5,-40.125,-0.05175781,-0.109375,0.8378906,0.3457031,-0.3632813,-0.2202148
529,7.6875,-16.875,-46,-0.03173828,-0.109375,0.9052734,0.3349609,-0.355957,-0.230957
530,17.9375,-32.875,-53.5625,0.04736328,-0.1015625,0.671875,0.3349609,-0.355957,-0.230957
531,3.875,-169.4375,-61.0625,0.09521484,0.04101563,2.197754,0.3432617,-0.3505859,-0.2177734
532,-21.8125,-124.5625,-47,0.206543,-0.4492188,1.20166,0.3242188,-0.3632813,-0.2333984
533,-31.125,-100.6875,-37.625,0.4731445,-0.6621094,1.304199,0.3242188,-0.3632813,-0.2333984
534,7,-60.25,-21.875,0.5644531,-0.9750977,1.529785,0.3188477,-0.3481445,-0.230957
535,47.9375,-8.625,-1.75,0.5883789,-0.7895508,1.43457,0.3188477,-0.3481445,-0.230957
536,1.5,-8.375,-18.5625,0.3017578,-0.1557617,0.7983398,0.300293,-0.3481445,-0.2358398
537,-69.6875,-41.1875,-26.4375,0.1787109,0.05224609,0.7905273,0.300293,-0.3530273,-0.2358398
538,-87.875,-62.5625,-34.0625,0.1469727,0.1298828,1.007813,0.300293,-0.3530273,-0.2358398
539,-73.4375,-84.5625,-44.5,0.1069336,0.1796875,1.047363,0.300293,-0.3530273,-0.2358398
540,-63.3125,-96.5,-75.9375,0.1748047,0.06396484,1.047363,0.300293,-0.3530273,-0.2358398
541,-65,-140,-239.5,0.1787109,0.2802734,0.6879883,0.2949219,-0.3330078,-0.2333984
542,-66.875,-144.375,-253,0.3339844,-0.5229492,1.122559,0.2949219,-0.3330078,-0.2333984
543,-82.5625,-133.125,-217.125,0.2543945,-0.2290039,1.221191,0.2949219,-0.3330078,-0.2333984
544,-112.625,-140.625,-277.6875,-0.4536133,-0.2177734,0.956543,0.2524414,-0.3071289,-0.2412109
545,-102.625,-124.1875,-160.9375,-0.5214844,-0.8242188,1.351563,0.2524414,-0.3071289,-0.2412109
546,-60.125,-69.875,-59.4375,-0.2226563,-0.8666992,1.446777,0.2524414,-0.3071289,-0.2412109
547,-4.25,-30.6875,5.9375,-0.230957,-0.6464844,1.422852,0.2285156,-0.2763672,-0.2436523
548,41.5,-20.75,55.375,-0.4418945,-0.5307617,1.245117,0.2285156,-0.2763672,-0.2436523
549,78.125,-8.625,95.0625,0.09082031,-0.2099609,1.320313,0.2285156,-0.2763672,-0.2436523
550,108.375,-4.6875,72.875,0.3618164,-0.09375,1.114746,0.2177734,-0.2890625,-0.246582
551,98.0625,-25,41.5625,0.3657227,-0.01660156,0.8774414,0.2177734,-0.2890625,-0.246582
552,75.875,-54,15.25,0.3896484,0.02929688,0.9208984,0.2177734,-0.2890625,-0.246582
553,62.125,-71.25,-2.375,0.3535156,0.02929688,1.023926,0.2177734,-0.2890625,-0.246582
554,66.75,-75.8125,-10.375,0.2939453,-0.05126953,1.114746,0.2124023,-0.3125,-0.2490234
555,78.8125,-71.75,-7.5,0.2543945,-0.1289063,1.083008,0.2124023,-0.3125,-0.2490234
556,83.0625,-65.875,-1.1875,0.2661133,-0.1362305,0.940918,0.2124023,-0.3125,-0.2490234
557,89.1875,-63.0625,1.375,0.3818359,-0.09375,0.9326172,0.1962891,-0.3173828,-0.2436523
558,97.5625,-55.6875,0.25,0.4331055,-0.004882813,0.9643555,0.1962891,-0.3173828,-0.2436523
559,109.5,-46.625,4.5,0.4770508,0.05615234,0.9760742,0.1962891,-0.3173828,-0.2436523
560,115.3125,-36.9375,15,0.5048828,0.06787109,0.9804688,0.1723633,-0.3432617,-0.262207
561,116.625,-29.4375,26.0625,0.6044922,0.1025391,0.9921875,0.1723633,-0.3432617,-0.262207
562,112.75,-27.5625,29.75,0.6879883,0.1298828,0.9760742,0.1723633,-0.3432617,-0.262207
563,100.375,-32.1875,27.625,0.7836914,0.1953125,0.9052734,0.1669922,-0.3735352,-0.2490234
564,79.75,-38,26.3125,0.8232422,0.2724609,0.9208984,0.1669922,-0.3735352,-0.2490234
565,63.5625,-43.6875,31.25,0.8115234,0.253418,1.023926,0.1669922,-0.3735352,-0.2490234
566,57.4375,-45.4375,44.0625,0.7993164,0.2841797,1.193848,0.1669922,-0.3735352,-0.2490234
567,62,-47.75,58.9375,0.8271484,0.2109375,1.264648,0.1586914,-0.3891602,-0.2651367
569,71.8125,-50.3125,70.9375,0.8632813,0.1489258,1.308105,0.1586914,-0.3891602,-0.2651367
570,79.6875,-55.75,77.75,0.831543,0.06396484,1.264648,0.1586914,-0.3891602,-0.2651367
571,81.8125,-68,79.5625,0.8710938,-0.0009765625,1.280762,0.1533203,-0.409668,-0.2568359
572,86.8125,-83.5625,75.125,0.8989258,0.001953125,1.308105,0.1533203,-0.409668,-0.2568359
573,93.5625,-95.6875,67.75,0.8833008,-0.05126953,1.233398,0.1323242,-0.4121094,-0.262207
574,98.6875,-105.875,63.875,0.8671875,-0.02050781,1.205566,0.1293945,-0.4326172,-0.2597656
575,100.0625,-109.125,63.9375,0.8393555,0.04101563,1.122559,0.1293945,-0.4326172,-0.2597656
576,97.6875,-105.0625,70.3125,0.8076172,0.04833984,1.047363,0.1240234,-0.4428711,-0.2568359
577,91.1875,-97.25,80,0.7675781,0.04833984,1,0.1162109,-0.4555664,-0.2651367
578,82.5,-89.75,87.875,0.7558594,0.01367188,0.9760742,0.1162109,-0.4555664,-0.2651367
579,74.5,-85.875,91.4375,0.7280273,-0.0009765625,1.015625,0.09472656,-0.4609375,-0.2490234
580,67,-86.6875,90.1875,0.6879883,-0.05517578,1.015625,0.09472656,-0.4609375,-0.2490234
581,59.4375,-89.5625,83.875,0.65625,-0.07861328,1.011719,0.08154297,-0.4707031,-0.2519531
582,53.25,-91.25,76.8125,0.6162109,-0.1362305,0.9604492,0.07861328,-0.4863281,-0.2568359
583,48.1875,-89.375,69.8125,0.5883789,-0.1904297,0.972168,0.07861328,-0.4863281,-0.2568359
584,43.8125,-83.75,63.625,0.5644531,-0.1982422,0.8930664,0.05224609,-0.4760742,-0.246582
585,35.125,-73.0625,58.3125,0.5249023,-0.2250977,0.8535156,0.05224609,-0.4760742,-0.246582
586,23.25,-59.25,51.25,0.5449219,-0.1865234,0.7788086,0.046875,-0.480957,-0.2519531
587,14.375,-43.0625,40,0.5209961,-0.175293,0.7270508,0.04394531,-0.4863281,-0.2436523
588,0.9375,-22.25,29.625,0.4492188,-0.2177734,0.6958008,0.04394531,-0.4863281,-0.2436523
589,-20.875,1.5625,28.75,0.3735352,-0.2177734,0.7075195,0.02539063,-0.4912109,-0.2490234
590,-37.1875,21.125,31.125,0.3735352,-0.2563477,0.8261719,0.03613281,-0.4838867,-0.2436523
591,-46.1875,38.5,26.875,0.425293,-0.1362305,0.8930664,0.03613281,-0.4838867,-0.2436523
592,-67.875,44.25,22.0625,0.4135742,-0.2407227,0.9804688,0.03613281,-0.4658203,-0.2519531
593,-66.875,35.4375,4.5625,0.4135742,-0.2368164,1.027832,0.03613281,-0.4658203,-0.2519531
594,-44.5,45.25,-24.1875,0.4052734,-0.1557617,0.9130859,0.03613281,-0.453125,-0.2543945
595,-59.6875,69.25,-36.8125,0.2822266,-0.2177734,0.7231445,0.05224609,-0.4555664,-0.2519531
596,-88.5,80.625,-32.75,0.2939453,-0.3027344,0.7788086,0.05224609,-0.4555664,-0.2519531
597,-97.3125,84.25,-40.875,0.3818359,-0.2407227,0.9604492,0.04931641,-0.4555664,-0.2436523
598,-83.4375,80.5625,-61.125,0.3657227,-0.1904297,1.154297,0.04931641,-0.4555664,-0.2436523
599,-74.875,80.75,-69.3125,0.3178711,-0.2216797,1.138184,0.07324219,-0.4477539,-0.2597656
600,-68,77.9375,-67.5,0.3696289,-0.1557617,1.162109,0.07324219,-0.4326172,-0.2651367
601,-68,72.625,-78.1875,0.3535156,-0.159668,1.166016,0.07324219,-0.4326172,-0.2651367
602,-73.625,67.3125,-78.5625,0.3974609,-0.1401367,1.173828,0.08154297,-0.4272461,-0.262207
603,-84,62.4375,-79.75,0.4013672,-0.1328125,1.134277,0.09472656,-0.4223633,-0.262207
604,-87.1875,50,-87.4375,0.4492188,-0.09375,1.154297,0.09472656,-0.4223633,-0.262207
605,-88.125,38.75,-98,0.4135742,-0.1674805,1.126465,0.1083984,-0.4121094,-0.262207
606,-83.625,30.3125,-100.875,0.409668,-0.1518555,1.158203,0.1083984,-0.4121094,-0.262207
607,-72.625,24.375,-101.5625,0.4052734,-0.08984375,1.173828,0.1108398,-0.4072266,-0.2597656
608,-60.375,26.75,-98.75,0.4291992,0.02539063,1.11084,0.09765625,-0.3891602,-0.2675781
609,-59.3125,35.8125,-85,0.425293,0.05224609,1.05127,0.09765625,-0.3891602,-0.2675781
610,-67.125,44.875,-65.625,0.4848633,0.1645508,1.035645,0.1108398,-0.3837891,-0.2651367
611,-77.25,50.4375,-48.875,0.5048828,0.1645508,1.023926,0.1108398,-0.3837891,-0.2651367
612,-85.5,51.9375,-36.75,0.5249023,0.1333008,1.023926,0.1186523,-0.3789063,-0.2700195
613,-81.375,54.5625,-27.1875,0.4731445,0.07958984,1.015625,0.1162109,-0.3710938,-0.2597656
614,-76.75,59.625,-15.5,0.465332,0.01367188,1.035645,0.1162109,-0.3710938,-0.2597656
615,-78.4375,64.6875,-5.75,0.4970703,0.04443359,0.9448242,0.1186523,-0.3632813,-0.2568359
616,-92.3125,65.8125,-3.1875,0.5048828,-0.04394531,0.9804688,0.1455078,-0.355957,-0.262207
617,-99.5625,59.0625,-6.8125,0.5048828,-0.08251953,1.063477,0.1455078,-0.355957,-0.262207
618,-94.9375,47.375,-15.3125,0.5048828,-0.1015625,1.09082,0.1430664,-0.3354492,-0.2597656
619,-83.375,33.625,-23,0.5048828,-0.1904297,1.134277,0.1430664,-0.3354492,-0.2597656
620,-65.5625,22.5,-26.9375,0.4331055,-0.1982422,1.126465,0.1484375,-0.3330078,-0.2490234
621,-46.25,14.875,-29.3125,0.4052734,-0.1557617,1.055176,0.15625,-0.3251953,-0.2597656
622,-31.3125,9.625,-34.3125,0.4375,-0.1787109,1.015625,0.15625,-0.3251953,-0.2597656
623,-24.875,7,-40.6875,0.453125,-0.1865234,0.956543,0.1484375,-0.3251953,-0.2519531
624,-23.4375,4.8125,-49.5,0.4570313,-0.2177734,0.9526367,0.1484375,-0.3251953,-0.2519531
625,-25.875,1.25,-60.625,0.465332,-0.2021484,0.9487305,0.15625,-0.3125,-0.2519531
626,-23.9375,-0.75,-69.875,0.4331055,-0.1713867,0.9960938,0.1455078,-0.3125,-0.2519531
627,-9.5625,1.8125,-66.375,0.3496094,-0.1289063,1.094727,0.1455078,-0.3125,-0.2519531
628,10.3125,10.0625,-44.5,0.3696289,0.04833984,1.102539,0.1508789,-0.3125,-0.2436523
629,17.125,12.875,-20.3125,0.4375,0.1298828,1.067383,0.1401367,-0.3071289,-0.2568359
630,13.5625,8.125,-6.625,0.5327148,0.137207,1.027832,0.1401367,-0.3071289,-0.2568359
631,5.3125,1,3,0.5170898,0.06396484,1.047363,0.1455078,-0.3071289,-0.2543945
632,1.3125,-6.8125,10.875,0.4848633,0.02539063,1.071289,0.1455078,-0.3071289,-0.2543945
634,3.75,-13.75,15.1875,0.4770508,-0.05126953,1.106934,0.1401367,-0.3125,-0.2597656
635,11.5,-22.1875,17.3125,0.4731445,-0.04003906,1.122559,0.1533203,-0.3095703,-0.2436523
636,18.4375,-29.625,19.1875,0.4692383,-0.05126953,1.015625,0.1533203,-0.3095703,-0.2436523
637,23.6875,-33.3125,21.9375,0.4692383,-0.05517578,1,0.1484375,-0.3149414,-0.2436523
638,29.625,-34.5625,25.4375,0.453125,-0.06298828,1.035645,0.1484375,-0.3149414,-0.2436523
639,38.625,-35.125,28.375,0.4414063,-0.06689453,1.059082,0.1430664,-0.3149414,-0.2568359
640,44.9375,-37.375,29.0625,0.4291992,-0.1171875,1.011719,0.1484375,-0.3300781,-0.2543945
641,49.4375,-41.3125,24.875,0.409668,-0.1557617,0.9526367,0.1484375,-0.3300781,-0.2543945
642,46.625,-35.9375,19.0625,0.4213867,-0.2021484,0.8974609,0.1347656,-0.3251953,-0.2597656
643,40.4375,-24.6875,17.625,0.3535156,-0.2329102,0.9052734,0.1401367,-0.3300781,-0.2568359
644,30.875,-13.9375,17.0625,0.3339844,-0.1904297,0.8735352,0.1401367,-0.3300781,-0.2568359
645,22.5,-7.75,17.0625,0.3496094,-0.1904297,0.972168,0.1293945,-0.340332,-0.2568359
646,18.75,-6.625,18.125,0.3774414,-0.1904297,1.031738,0.1293945,-0.340332,-0.2568359
647,18.375,-9.625,16.5625,0.3735352,-0.1865234,1.043457,0.1186523,-0.3378906,-0.2651367
648,22.875,-12.5625,13.3125,0.3457031,-0.2446289,1.05127,0.121582,-0.3378906,-0.2519531
649,31.75,-16,10.5,0.3178711,-0.2792969,1.102539,0.121582,-0.3378906,-0.2519531
650,42.75,-18.0625,7.0625,0.3178711,-0.2602539,1.031738,0.1323242,-0.3457031,-0.2597656
651,48.375,-20.125,4.1875,0.3857422,-0.2290039,1.043457,0.1323242,-0.3457031,-0.2597656
652,55.5625,-20.375,3.1875,0.3100586,-0.1787109,1.003906,0.1162109,-0.3505859,-0.2597656
653,56.1875,-21.1875,3.875,0.3857422,-0.1787109,1.011719,0.1240234,-0.3481445,-0.246582
654,54.375,-20.5,2.375,0.425293,-0.144043,1.015625,0.1240234,-0.3481445,-0.246582
655,47.3125,-24.375,-3.4375,0.4492188,-0.1518555,1.015625,0.1132813,-0.3710938,-0.2651367
656,39,-27.4375,-12.625,0.4492188,-0.1865234,1.003906,0.121582,-0.3662109,-0.2490234
657,32.625,-31.0625,-18.75,0.4414063,-0.1557617,0.9804688,0.121582,-0.3662109,-0.2490234
658,26.125,-30.625,-25.0625,0.4213867,-0.125,0.9091797,0.1162109,-0.3662109,-0.2543945
659,18.75,-25.6875,-26.9375,0.465332,-0.07861328,0.8657227,0.1162109,-0.3662109,-0.2543945
660,8.9375,-19.5,-21.1875,0.4453125,0.005859375,0.8457031,0.1030273,-0.3837891,-0.2700195
661,1.4375,-13.5625,-14.75,0.4692383,0.02539063,0.8378906,0.1030273,-0.3764648,-0.2597656
662,-4.375,-7.9375,-10.5625,0.4931641,0.02148438,0.7788086,0.1030273,-0.3764648,-0.2597656
663,-7.3125,-4.3125,-7,0.5087891,0.05224609,0.7709961,0.09765625,-0.3891602,-0.2729492
664,-6.9375,-1.5625,-4.5625,0.4931641,0.04443359,0.8300781,0.09765625,-0.3891602,-0.2729492
665,-4.5625,-1.75,-2,0.5131836,0.05224609,0.8496094,0.1000977,-0.3837891,-0.2519531
666,-0.125,-0.4375,2.5,0.453125,0.02539063,0.8852539,0.1030273,-0.3789063,-0.2597656
667,4.3125,3.25,11.5,0.4731445,0.05615234,0.8852539,0.1030273,-0.3789063,-0.2597656
668,11.3125,5.8125,20.5625,0.5131836,0.04833984,0.9326172,0.09765625,-0.3837891,-0.2597656
669,20.4375,6,27.625,0.4848633,0.04101563,0.9960938,0.1083984,-0.3764648,-0.2597656
670,28.6875,3.9375,35.4375,0.480957,0.01757813,0.9526367,0.1083984,-0.3764648,-0.2597656
671,29.9375,3.9375,44.1875,0.5087891,0.02539063,0.9604492,0.1000977,-0.3867188,-0.2597656
672,22.625,3.6875,52,0.5288086,0.01367188,0.9365234,0.1000977,-0.3867188,-0.2597656
673,15.6875,4.125,53.75,0.5488281,0.005859375,0.972168,0.09765625,-0.3789063,-0.262207
674,12.6875,7.6875,53.1875,0.5327148,-0.03222656,1.007813,0.09472656,-0.3916016,-0.2651367
675,9.5625,12.25,51.9375,0.5288086,-0.09375,0.9682617,0.09472656,-0.3916016,-0.2651367
676,-2.3125,16.8125,46.375,0.5844727,-0.09765625,0.9682617,0.09765625,-0.3867188,-0.262207
677,-13.3125,18.125,37.4375,0.6044922,-0.07470703,0.972168,0.09765625,-0.3867188,-0.262207
678,-19.9375,19.125,27.8125,0.5927734,-0.06689453,1.035645,0.1083984,-0.3867188,-0.2568359
679,-17.0625,21.6875,22.4375,0.5766602,-0.06298828,1.063477,0.1108398,-0.3867188,-0.2597656
680,-10.3125,26.375,21.375,0.5327148,-0.004882813,1.083008,0.1108398,-0.3867188,-0.2597656
681,-5.9375,33.4375,25.1875,0.5488281,0.05224609,1.043457,0.1054688,-0.3813477,-0.2651367
682,-11.1875,39.875,33.5,0.5170898,0.08349609,1.003906,0.1186523,-0.3764648,-0.2543945
683,-21.1875,42,42.3125,0.5249023,0.07958984,0.9960938,0.1186523,-0.3764648,-0.2543945
684,-29.25,45.1875,46.5,0.5249023,-0.0009765625,1.035645,0.1240234,-0.3686523,-0.262207
685,-32.3125,50,47.25,0.5009766,-0.07470703,1,0.1240234,-0.3686523,-0.262207
686,-31.1875,58.0625,46.375,0.480957,-0.1328125,0.9960938,0.1240234,-0.3789063,-0.262207
687,-28.9375,68.625,44.375,0.4375,-0.1328125,0.940918,0.1401367,-0.3686523,-0.262207
688,-29.4375,80.0625,40.75,0.4013672,-0.1943359,0.9013672,0.1401367,-0.3686523,-0.262207
689,-31.375,93.8125,36.8125,0.3818359,-0.2021484,0.8735352,0.1484375,-0.3710938,-0.2597656
690,-30.125,108.5,31.8125,0.3017578,-0.1982422,0.8696289,0.1484375,-0.3710938,-0.2597656
691,-24.375,127.1875,28.9375,0.262207,-0.2216797,0.8735352,0.1586914,-0.3686523,-0.2597656
692,-18.75,151.5625,37.25,0.222168,-0.1865234,0.9169922,0.1831055,-0.3632813,-0.2597656
693,-22.625,171,54.1875,0.1748047,-0.1054688,0.8696289,0.1831055,-0.3632813,-0.2597656
694,-33.3125,179.4375,66.0625,0.2304688,-0.06689453,0.940918,0.1884766,-0.3530273,-0.2543945
695,-50,179.3125,66.875,0.262207,-0.09375,1.011719,0.2255859,-0.3583984,-0.2519531
696,-61.625,167.25,61.3125,0.2739258,-0.1401367,1.122559,0.2255859,-0.3583984,-0.2519531
697,-67.25,152.3125,51.5625,0.222168,-0.2563477,1.249023,0.2495117,-0.355957,-0.2519531
699,-58.8125,125.4375,42.375,0.2304688,-0.2602539,1.43457,0.2495117,-0.355957,-0.2519531
700,-43.3125,98.625,31.4375,0.2504883,-0.2216797,1.537598,0.2495117,-0.3457031,-0.246582
701,-17.9375,67.6875,19.8125,0.1826172,-0.2446289,1.60498,0.2631836,-0.3330078,-0.2412109
702,15.625,38.375,18.0625,0.1625977,-0.2329102,1.592773,0.2631836,-0.3330078,-0.2412109
703,46.1875,9.75,22.375,0.09521484,-0.2060547,1.45459,0.2739258,-0.3378906,-0.2412109
704,70.5,-9.5625,26.25,0.1030273,-0.1826172,1.391113,0.2739258,-0.3378906,-0.2412109
705,85.9375,-25.75,30,0.1108398,-0.109375,1.276855,0.2709961,-0.3505859,-0.2490234
706,89.5625,-48.1875,35.75,0.1547852,-0.1401367,1.272949,0.265625,-0.3583984,-0.2387695
707,89.5,-61.5625,36.75,0.222168,-0.125,1.324219,0.265625,-0.3583984,-0.2387695
708,85.875,-73,35.6875,0.1943359,-0.1713867,1.268555,0.2685547,-0.3710938,-0.2436523
709,77.0625,-79,34.6875,0.2265625,-0.144043,1.177734,0.2524414,-0.3735352,-0.2543945
710,62.9375,-79.6875,35.5,0.2104492,-0.1328125,1.130371,0.2524414,-0.3735352,-0.2543945
711,35.25,-77.875,39.5625,0.2460938,-0.1171875,1.023926,0.2441406,-0.3916016,-0.2675781
712,2.5,-76.9375,43.5625,0.2861328,-0.03222656,1.011719,0.2441406,-0.3916016,-0.2675781
713,-27.5625,-75.75,42.6875,0.3378906,-0.02050781,1.075195,0.2338867,-0.3867188,-0.2568359
714,-38.6875,-73.375,38.25,0.2700195,-0.109375,1.106934,0.2338867,-0.3891602,-0.2543945
715,-31.875,-67.5,30.375,0.3061523,-0.2177734,1.106934,0.2338867,-0.3891602,-0.2543945
716,-20.75,-57.25,23.3125,0.2822266,-0.2524414,1.086914,0.2255859,-0.3837891,-0.2519531
717,-16.75,-45.3125,21.125,0.262207,-0.3178711,0.9960938,0.2255859,-0.3837891,-0.2519531
718,-17.6875,-36.125,16.5625,0.3217773,-0.3720703,0.9487305,0.2124023,-0.3764648,-0.2519531
719,-21.8125,-24.4375,7.0625,0.2978516,-0.4145508,0.8974609,0.2148438,-0.3710938,-0.2597656
720,-29.3125,-15.4375,-4.0625,0.3100586,-0.4804688,0.8974609,0.2148438,-0.3710938,-0.2597656
721,-33,-10,-15.75,0.3061523,-0.5112305,0.8891602,0.2094727,-0.3789063,-0.2597656
722,-26.8125,-2.9375,-27.75,0.3061523,-0.5151367,0.940918,0.2094727,-0.3813477,-0.2568359
723,-11.9375,7.3125,-39.9375,0.2900391,-0.4956055,0.8657227,0.2094727,-0.3813477,-0.2568359
724,-1.6875,15.75,-52.25,0.2543945,-0.4223633,0.7709961,0.2070313,-0.3710938,-0.2597656
725,3.25,22.625,-59.625,0.2304688,-0.3720703,0.7270508,0.2070313,-0.3710938,-0.2597656
726,2,30.0625,-64.0625,0.2182617,-0.3066406,0.7470703,0.1933594,-0.3662109,-0.2436523
727,-1.0625,37.375,-63.25,0.2421875,-0.2714844,0.7749023,0.2070313,-0.3686523,-0.2490234
728,2.375,43.3125,-63.9375,0.2460938,-0.2216797,0.8300781,0.2070313,-0.3686523,-0.2490234
729,17.625,53.6875,-66.5,0.1943359,-0.2602539,0.8974609,0.2177734,-0.3710938,-0.2490234
730,37.0625,64.625,-67.5625,0.1508789,-0.3491211,0.9526367,0.2177734,-0.3710938,-0.2490234
731,59.3125,69.5625,-68.5625,0.1469727,-0.4106445,0.940918,0.2231445,-0.355957,-0.2436523
732,86.625,72.6875,-74.4375,0.1704102,-0.3798828,0.956543,0.2338867,-0.3764648,-0.2597656
733,105.3125,77.375,-82.1875,0.1347656,-0.2407227,0.9365234,0.2338867,-0.3764648,-0.2597656
734,102.4375,74.3125,-87.375,0.1943359,-0.144043,0.8657227,0.230957,-0.3837891,-0.2568359
735,96.9375,59.25,-95.25,0.2421875,-0.03613281,0.8891602,0.2387695,-0.394043,-0.2597656
736,99.5625,46.625,-104.0625,0.206543,0.07177734,1.106934,0.2387695,-0.394043,-0.2597656
737,113.25,40.6875,-103.1875,0.2583008,0.2456055,1.256836,0.2470703,-0.409668,-0.2490234
738,136.375,34.125,-97.875,0.2421875,0.2573242,1.264648,0.2470703,-0.409668,-0.2490234
739,138.75,29.1875,-88.75,0.1269531,0.1723633,1.11084,0.2602539,-0.409668,-0.2490234
740,128,10.625,-72.5625,0.1469727,0.06396484,1.158203,0.2524414,-0.4326172,-0.246582
741,137.75,8.125,-53.5,0.1069336,0.03320313,1.332031,0.2524414,-0.4326172,-0.246582
742,162.1875,3.125,-31.0625,0.1347656,0.07958984,1.324219,0.2524414,-0.4477539,-0.2490234
743,186.6875,12.625,-22.5625,0.2182617,0.1567383,1.130371,0.2524414,-0.4477539,-0.2490234
744,185.375,13.3125,-15.0625,0.3417969,0.2338867,1.079102,0.2685547,-0.4682617,-0.2597656
745,163.75,22.1875,-24.25,0.453125,0.3613281,1.027832,0.2685547,-0.4863281,-0.246582
746,129,25.6875,-49.4375,0.6083984,0.2651367,1.158203,0.2685547,-0.4863281,-0.246582
747,139.5,25.75,-128.375,0.3457031,0.1181641,0.940918,0.2524414,-0.4912109,-0.2387695
748,86,-5.125,-135.1875,0.1469727,-0.1132813,1.047363,0.2685547,-0.5068359,-0.2387695
749,59.3125,7.375,-129.875,0.1230469,0.03320313,0.9804688,0.2685547,-0.5068359,-0.2387695
750,38.6875,13.6875,-133.5625,0.2382813,0.2070313,0.9682617,0.2739258,-0.5146484,-0.2387695
751,14.125,15.875,-145.375,0.3061523,0.3964844,0.9365234,0.2739258,-0.5146484,-0.2387695
752,-27.1875,12.5,-151.625,0.3818359,0.4926758,0.984375,0.2871094,-0.5092773,-0.2387695
753,-57.4375,2.25,-138.8125,0.3100586,0.4775391,1.189941,0.2817383,-0.5043945,-0.246582
754,-41.5625,2.0625,-124,0.2583008,0.4428711,1.411133,0.2817383,-0.5043945,-0.246582
755,-39.1875,1.5,-104.875,0.2504883,0.3769531,1.169922,0.2924805,-0.496582,-0.2358398
756,-53.5625,-8.75,-87.5625,0.2783203,0.3227539,1.154297,0.2924805,-0.496582,-0.2358398
757,-61.5,-22.9375,-62.75,-0.07177734,0.152832,1.162109,0.2817383,-0.496582,-0.2436523
758,-63.125,-7.6875,-26.375,0.07128906,0.137207,1.316406,0.2817383,-0.496582,-0.2436523
759,-68.0625,-19.3125,-16.9375,0.2143555,0.2998047,1.296387,0.2817383,-0.496582,-0.2436523
760,-73.1875,-34,-16.6875,0.206543,0.21875,1.426758,0.2895508,-0.4736328,-0.2387695
761,-79.875,-40.9375,-14.0625,0.1704102,0.2260742,1.355957,0.2895508,-0.4736328,-0.2387695
762,-101.4375,-44.3125,-14.125,0.1508789,0.1914063,1.304199,0.2895508,-0.4736328,-0.2387695
764,-116.5,-31.75,-24,0.2143555,0.1762695,1.150391,0.2739258,-0.4506836,-0.2358398
765,-148.5625,-23.625,-45.875,0.1904297,0.1762695,0.984375,0.2739258,-0.4506836,-0.2358398
766,-176.9375,-28.0625,-66.1875,0.1347656,0.1411133,1.015625,0.2739258,-0.4506836,-0.2358398
767,-206.625,-39,-67.75,0.09521484,0.04101563,1.154297,0.2631836,-0.4121094,-0.246582
768,-230.1875,-31.5,-78.8125,0.206543,0.1103516,1.031738,0.2631836,-0.4121094,-0.246582
769,-259.25,-52.5,-103.75,0.1904297,0.005859375,0.8930664,0.2631836,-0.4121094,-0.246582
770,-284.5,-65.9375,-115,0.234375,-0.09765625,1.039551,0.2631836,-0.4121094,-0.246582
771,-305.1875,-67.75,-121,0.1586914,-0.1635742,0.9326172,0.2685547,-0.3432617,-0.2436523
772,-323.5,-79.5,-153.625,0.453125,-0.1132813,0.9682617,0.2685547,-0.3432617,-0.2436523
773,-352.5625,-77.4375,-162.625,0.2583008,-0.2250977,0.9448242,0.2685547,-0.3432617,-0.2436523
774,-385.25,-84,-158.25,0.5048828,-0.1713867,0.7353516,0.2387695,-0.269043,-0.2412109
775,-406.875,-103.6875,-168.1875,0.2978516,-0.3139648,0.8535156,0.2387695,-0.269043,-0.2412109
776,-403.5,-92.1875,-185.4375,0.4291992,-0.2216797,1.011719,0.2387695,-0.269043,-0.2412109
777,-351.75,-70.1875,-230.9375,0.5966797,-0.1713867,1.276855,0.2094727,-0.1767578,-0.2148438
778,-297.625,-59.25,-226.5625,0.2543945,-0.3413086,1.328125,0.2094727,-0.1767578,-0.2148438
779,-225.75,-47.3125,-164.125,0.5048828,-0.4418945,1.628418,0.2094727,-0.1767578,-0.2148438
780,-157.3125,11.75,-165,0.2939453,-0.4804688,1.462402,0.1694336,-0.1176758,-0.1704102
781,-108.5625,72.1875,-106.8125,-0.09570313,-0.8242188,1.600586,0.1694336,-0.1176758,-0.1704102
782,-53.6875,46.125,10.75,-0.3344727,-0.9287109,0.8378906,0.1694336,-0.1176758,-0.1704102
783,-40.25,21.5,87.3125,0.2939453,-0.4492188,0.8100586,0.1694336,-0.1176758,-0.1704102
784,-14.625,22,72.5,0.4414063,-0.3178711,1.075195,0.1694336,-0.1049805,-0.1728516
785,28.375,2.8125,53.8125,0.480957,-0.2216797,0.956543,0.1694336,-0.1049805,-0.1728516
786,46.6875,5.3125,32.875,0.4414063,-0.2832031,1.094727,0.1694336,-0.1049805,-0.1728516
787,84.0625,5.125,33.6875,0.2304688,-0.4570313,1.185547,0.1801758,-0.1074219,-0.1674805
788,122.6875,-4.1875,65.75,0.1230469,-0.453125,1.067383,0.1801758,-0.1074219,-0.1674805
789,157.25,-2.4375,84.5625,0.3579102,-0.2675781,1.122559,0.1801758,-0.1074219,-0.1674805
790,188.4375,-0.3125,82.9375,0.2978516,-0.3027344,0.984375,0.1855469,-0.1308594,-0.1728516
791,197.375,-5.5625,99.9375,0.3417969,-0.3066406,1,0.1855469,-0.1308594,-0.1728516
792,201,-5.3125,100.3125,0.4291992,-0.1289063,0.7470703,0.1884766,-0.1435547,-0.1962891
793,178.5625,-11.25,78.6875,0.4931641,-0.08984375,0.7709961,0.1962891,-0.1689453,-0.2094727
794,163.3125,-14.375,59.0625,0.425293,-0.1289063,0.8339844,0.1962891,-0.1689453,-0.2094727
795,146.375,-20.375,47.4375,0.4570313,-0.1132813,0.8696289,0.1987305,-0.2021484,-0.2202148
796,137.75,-20.9375,25.5625,0.4970703,-0.03613281,0.8774414,0.1987305,-0.2021484,-0.2202148
797,125.5625,-20.8125,-1.0625,0.4135742,-0.1015625,0.9208984,0.2016602,-0.2099609,-0.2280273
798,116.5625,-18.1875,-19.25,0.3256836,-0.1362305,0.9248047,0.1933594,-0.215332,-0.230957
799,106.8125,1.0625,-31.9375,0.2783203,-0.1362305,1.027832,0.1933594,-0.215332,-0.230957
800,116,-1.125,-32.25,0.3457031,-0.1328125,0.9804688,0.1933594,-0.2280273,-0.2358398
801,112.75,0.0625,-45.25,0.3496094,-0.1054688,1.011719,0.1933594,-0.2280273,-0.2358398
802,109.5625,13.6875,-54.9375,0.2583008,-0.1826172,0.8100586,0.1933594,-0.2456055,-0.2387695
803,88.125,26.125,-52.8125,0.1665039,-0.3027344,0.7392578,0.1855469,-0.253418,-0.2387695
804,74.5,32.375,-48.625,0.2382813,-0.3105469,0.8813477,0.1855469,-0.253418,-0.2387695
805,75.125,47.5,-69.5,0.3457031,-0.2641602,0.8891602,0.1962891,-0.2612305,-0.2436523
806,54.3125,48.625,-85.25,0.2978516,-0.2216797,0.7626953,0.190918,-0.2739258,-0.2436523
807,33.125,46.3125,-87.9375,0.2900391,-0.1635742,0.9013672,0.190918,-0.2739258,-0.2436523
808,34.6875,41.875,-81.375,0.1748047,-0.2177734,1.11084,0.2016602,-0.2763672,-0.230957
809,57.5625,36.75,-68.8125,0.1943359,-0.2177734,1.29248,0.2016602,-0.2763672,-0.230957
810,93.125,24,-53.1875,0.1665039,-0.1826172,1.332031,0.2016602,-0.2792969,-0.2333984
811,125.25,20.4375,-42.9375,0.2939453,-0.02441406,1.288574,0.2016602,-0.2919922,-0.2387695
812,125.875,20,-51.625,0.4013672,0.09863281,1.126465,0.2016602,-0.2919922,-0.2387695
813,94.5,29.125,-54.25,0.3935547,0.2148438,0.9208984,0.2094727,-0.3046875,-0.2490234
814,37.875,47.3125,-52.125,0.1547852,0.222168,1.162109,0.2094727,-0.3046875,-0.2490234
815,1.4375,60.1875,-30.375,0.3618164,0.2958984,1.079102,0.2070313,-0.3046875,-0.2543945
816,-37.5625,44.875,-33,0.4375,0.3037109,1.213379,0.2070313,-0.3198242,-0.2490234
817,-63.6875,32.0625,-41.875,0.3774414,0.1992188,1.280762,0.2070313,-0.3198242,-0.2490234
818,-67.8125,21.125,-37.3125,0.3100586,0.1953125,1.387207,0.2094727,-0.3095703,-0.2436523
819,-57.75,20.0625,-35,0.3178711,0.1489258,1.241211,0.2148438,-0.2890625,-0.2543945
820,-44.375,20.625,-30.3125,0.2460938,0.04443359,1.205566,0.2148438,-0.2890625,-0.2543945
821,-29.0625,22.8125,-19,0.2739258,0.07177734,1.122559,0.230957,-0.2993164,-0.2412109
822,-15.375,24,-11.625,0.2583008,0.07958984,1.197754,0.230957,-0.2993164,-0.2412109
823,-0.3125,19.625,-2.3125,0.1625977,0.07177734,1.185547,0.2094727,-0.2866211,-0.2412109
824,20.5625,20.1875,10.4375,0.1030273,-0.03222656,1.221191,0.2231445,-0.296875,-0.2519531
825,47.875,37.5625,6.9375,0.015625,-0.2602539,1.29248,0.2231445,-0.296875,-0.2519531
826,47.0625,156.375,-30.6875,-0.07958984,-0.4609375,1.541504,0.2285156,-0.2944336,-0.2436523
827,119.3125,177.3125,-29.125,0.07128906,-0.2407227,1.225098,0.2285156,-0.2944336,-0.2436523
829,136.9375,166.625,-34.3125,0.1386719,-0.004882813,1.086914,0.2387695,-0.2993164,-0.2543945
830,134.9375,159.625,-47.3125,0.1787109,0.08349609,1.102539,0.2631836,-0.3227539,-0.2412109
831,124.625,154.3125,-57.0625,0.1191406,0.1025391,1.122559,0.2631836,-0.3227539,-0.2412109
832,102.4375,156.5,-59.6875,0.06298828,0.1645508,1.181641,0.2739258,-0.3198242,-0.2436523
833,91.3125,152.9375,-54.25,0.08691406,0.1835938,1.11084,0.2924805,-0.3330078,-0.2255859
834,73.3125,122.5,-37.75,0.2583008,0.2456055,0.9526367,0.2924805,-0.3330078,-0.2255859
835,40.5625,75,-38.125,0.3857422,0.3076172,0.8339844,0.3056641,-0.3457031,-0.2387695
836,-27.875,56.6875,-56.625,0.7993164,0.1914063,1.14209,0.3056641,-0.3457031,-0.2387695
837,-40.4375,66.625,-12.8125,0.5727539,-0.02832031,1.268555,0.3085938,-0.355957,-0.2333984
838,-55.4375,95.9375,-17.3125,0.2265625,-0.03222656,1.260742,0.3164063,-0.3481445,-0.2358398
839,-55.125,112.3125,-15,0.04736328,0.04101563,1.268555,0.3164063,-0.3481445,-0.2358398
840,-49.875,126.25,-14,0.08300781,-0.05517578,1.288574,0.3295898,-0.3354492,-0.2255859
841,-41,145.625,-9.4375,0.07519531,-0.06689453,1.25293,0.3295898,-0.3354492,-0.2255859
842,-36.375,168.125,-6.9375,0.01123047,0.04443359,1.162109,0.3457031,-0.3300781,-0.230957
843,-30.75,180.625,-6.1875,-0.1196289,-0.0009765625,1.130371,0.3671875,-0.3300781,-0.2094727
844,-27.625,181.6875,-4.75,-0.1630859,0.03710938,0.9487305,0.3671875,-0.3300781,-0.2094727
845,-39.5625,170.1875,-8.8125,-0.2348633,0.02148438,0.8183594,0.3911133,-0.3198242,-0.2124023
846,-61.6875,148.375,3.3125,-0.2070313,0.005859375,0.8579102,0.4042969,-0.3125,-0.1962891
847,-59.3125,131.0625,-12.125,-0.1870117,0.01367188,1.067383,0.4042969,-0.3125,-0.1962891
848,-47,115.875,-25.9375,-0.2587891,-0.008789063,1.023926,0.4150391,-0.3022461,-0.1884766
849,-37.25,94.875,-34.4375,-0.3422852,-0.03613281,0.9326172,0.4150391,-0.3022461,-0.1884766
850,-29.4375,68.75,-47.5,-0.3740234,0.009765625,0.8891602,0.434082,-0.3046875,-0.1884766
851,-35.25,36.5625,-50,-0.4018555,-0.04736328,0.9526367,0.434082,-0.3046875,-0.1704102
852,-40.8125,16.6875,-32.5,-0.2666016,-0.1904297,1.173828,0.434082,-0.3046875,-0.1704102
853,-27.3125,12.625,-28.1875,-0.190918,-0.07080078,1.213379,0.4287109,-0.2919922,-0.175293
854,-17.3125,0,-42.0625,-0.2070313,0.01367188,1.063477,0.4287109,-0.2919922,-0.175293
855,-15.3125,-11.3125,-43.5,-0.21875,-0.03613281,1.150391,0.4394531,-0.2890625,-0.175293
856,-5.5625,-6.375,-42.125,-0.1713867,0.001953125,1.193848,0.434082,-0.2817383,-0.1704102
857,-0.3125,-3.625,-44.25,-0.1513672,0.001953125,1.118652,0.434082,-0.2817383,-0.1704102
858,2.875,-0.625,-46.9375,-0.1313477,-0.04003906,1.122559,0.4257813,-0.2739258,-0.1674805
859,0,-4.6875,-49.4375,0.3496094,0.222168,0.9169922,0.4311523,-0.2841797,-0.1650391
860,-19.1875,-19.75,-69.125,0.07519531,-0.1054688,1.015625,0.4311523,-0.2841797,-0.1650391
861,-12.5,-26.9375,-52.125,-0.2587891,-0.04394531,1.320313,0.4204102,-0.2739258,-0.1806641
862,2.75,3.3125,-29.5,-0.3779297,-0.1289063,1.466309,0.4204102,-0.2739258,-0.1806641
863,28.8125,42.4375,-12.875,-0.2587891,0.001953125,1.383301,0.4204102,-0.2739258,-0.1782227
864,44.8125,73.4375,-10.0625,-0.2827148,-0.05908203,1.260742,0.4233398,-0.2792969,-0.1728516
865,60.625,105.8125,-6.1875,-0.3027344,-0.05126953,1.177734,0.4233398,-0.2792969,-0.1728516
866,76.5625,131.9375,-9.625,-0.3183594,-0.144043,1.221191,0.4287109,-0.2763672,-0.1674805
867,67.1875,148.75,-12.25,-0.203125,0.001953125,0.9804688,0.4287109,-0.2763672,-0.1674805
868,55.25,161.625,-14.875,-0.3979492,-0.1054688,1.031738,0.4394531,-0.2890625,-0.1542969
869,61.4375,164.1875,-1.0625,-0.3261719,-0.06298828,0.9208984,0.4604492,-0.2919922,-0.1572266
870,55.3125,161.5,8.5,-0.3623047,-0.06298828,0.9326172,0.4604492,-0.2919922,-0.1572266
871,50.8125,157.75,16.75,-0.2788086,-0.01660156,0.9365234,0.4765625,-0.2944336,-0.1411133
872,45.75,153,14.375,-0.2348633,0.07568359,0.9604492,0.4873047,-0.3022461,-0.1201172
873,38.3125,154.375,9.4375,-0.3144531,0.06005859,0.9052734,0.4873047,-0.3022461,-0.1201172
874,27.75,149.625,6.75,-0.3305664,0.08740234,0.8657227,0.4951172,-0.3022461,-0.1333008
875,8.125,130.9375,7,-0.3740234,0.09082031,0.9052734,0.4951172,-0.3022461,-0.1333008
876,-18.8125,114.8125,3.5,-0.3740234,0.152832,0.8339844,0.5195313,-0.3071289,-0.1123047
877,-36.3125,108.5,0.3125,-0.4257813,0.1025391,0.9052734,0.5297852,-0.3046875,-0.09912109
878,-53.0625,123.875,-3.6875,-0.4975586,0.1723633,0.8735352,0.5297852,-0.3046875,-0.09912109
879,-41.4375,101.875,9.25,-0.4418945,-0.02832031,0.9882813,0.5297852,-0.3046875,-0.09667969
880,-45.375,64.1875,19.3125,-0.4975586,-0.01269531,0.9052734,0.5297852,-0.3046875,-0.09667969
881,-49.875,36.125,25.5,0.003417969,0.08349609,0.8930664,0.5405273,-0.2919922,-0.09375
882,-58.125,31.9375,14.75,-0.5849609,-0.04736328,1.083008,0.5566406,-0.3046875,-0.078125
883,-44.9375,27.9375,22.375,-0.3862305,0.03710938,0.9682617,0.5566406,-0.3046875,-0.078125
884,-32.375,-1.5625,34.125,-0.4853516,-0.1171875,0.956543,0.543457,-0.2919922,-0.07519531
885,-16,-26.3125,45.1875,-0.5014648,-0.09375,1.035645,0.543457,-0.2919922,-0.0703125
886,-12,-40.6875,34.625,-0.4853516,-0.09765625,0.9487305,0.543457,-0.2919922,-0.0703125
887,-10.75,-61.9375,21.3125,-0.4379883,-0.01269531,0.9287109,0.543457,-0.2993164,-0.08056641
888,-16.5,-73.3125,-0.8125,-0.3823242,0.02539063,0.956543,0.543457,-0.2993164,-0.08056641
889,-35.75,-76.125,-24.375,-0.3623047,0.02539063,0.8974609,0.5297852,-0.2890625,-0.0859375
890,-41.3125,-75.8125,-34.5,-0.4179688,-0.004882813,1.027832,0.5244141,-0.2944336,-0.09375
891,-38.1875,-62.375,-37.4375,-0.3901367,-0.0009765625,1.043457,0.5244141,-0.2944336,-0.09375
892,-33,-50.0625,-36.9375,-0.3823242,-0.03222656,1.035645,0.5297852,-0.2890625,-0.1044922
894,-34.9375,-71.25,-30.625,-0.3144531,0.07177734,1.027832,0.5297852,-0.2890625,-0.1044922
895,-36.25,-43.5,-42.4375,-0.4658203,0.07177734,1.260742,0.5219727,-0.2841797,-0.1044922
896,-16.125,-3.1875,-29.25,-0.5849609,-0.1401367,1.29248,0.5244141,-0.2714844,-0.1098633
897,11.5,55.5,-10.5625,-0.8041992,-0.1479492,1.660156,0.5244141,-0.2714844,-0.1098633
898,66.4375,160.9375,25.25,-1.233887,-0.2250977,1.075195,0.5195313,-0.2817383,-0.1098633
899,53.125,209.6875,93.0625,-0.3540039,0.3149414,0.6835938,0.5297852,-0.2841797,-0.0859375
900,22.6875,198.1875,65.8125,-0.1713867,0.3574219,0.9526367,0.5297852,-0.2841797,-0.0859375
901,13.875,187.125,10.375,-0.2983398,0.1220703,1.14209,0.5380859,-0.296875,-0.07275391
902,18.6875,176.625,-30.625,-0.4736328,0.02929688,1.11084,0.5380859,-0.296875,-0.07275391
903,23.75,168.3125,-32.875,-0.5649414,0.005859375,0.9169922,0.5727539,-0.2944336,-0.05957031
904,27.0625,172.875,-3.125,-0.5571289,-0.2485352,0.9682617,0.5698242,-0.2890625,-0.03613281
905,35.875,161,40.5,-0.5571289,-0.1787109,1.272949,0.5698242,-0.2890625,-0.03613281
906,91.5,237.125,55.8125,-0.668457,0.1645508,1.300293,0.5888672,-0.2919922,-0.02539063
907,125.625,282,89,-0.5932617,-0.008789063,0.8930664,0.5888672,-0.2919922,-0.02539063
908,133.4375,305.4375,129.875,-0.612793,0.009765625,0.8144531,0.5996094,-0.3046875,-0.01513672
909,116.375,247.5,148.875,-0.7363281,-0.004882813,0.3950195,0.612793,-0.3227539,0.02148438
910,53,169.1875,154.5,-0.6806641,0.1220703,0.6166992,0.612793,-0.3227539,0.02148438
911,28,115.6875,142.25,-0.8198242,0.1875,0.7626953,0.6313477,-0.340332,0.03466797
912,-5.875,71.0625,144.3125,-0.8916016,0.02539063,0.7270508,0.6342773,-0.3608398,0.04492188
913,-17.8125,40.125,144.8125,-0.8198242,-0.09375,0.7788086,0.6342773,-0.3608398,0.04492188
914,-7.8125,40.5,151,-0.8515625,-0.05517578,0.7548828,0.6367188,-0.3764648,0.04785156
915,-48.125,50.125,146.5625,-0.8120117,-0.06689453,0.7114258,0.6367188,-0.3764648,0.04785156
916,-53,45.6875,134.5625,-0.7045898,-0.008789063,0.7709961,0.6499023,-0.3969727,0.05810547
917,-59.0625,64.5625,125.4375,-0.6166992,0.07568359,0.7749023,0.6499023,-0.4072266,0.07128906
918,-58.5,78.75,107.1875,-0.6367188,0.1259766,0.7548828,0.6499023,-0.4072266,0.07128906
919,-52.75,94.5625,88.3125,-0.6166992,0.2070313,0.7587891,0.6499023,-0.4169922,0.06347656
920,-37,113.6875,72.8125,-0.5175781,0.1450195,0.7036133,0.6499023,-0.4169922,0.06347656
921,-9.9375,130.3125,63.125,-0.4179688,0.21875,0.6245117,0.6499023,-0.4121094,0.07421875
922,11.3125,137.125,57,-0.3779297,0.3730469,0.5810547,0.6606445,-0.4248047,0.1005859
923,7.625,135.75,48.25,-0.4575195,0.3999023,0.5966797,0.6606445,-0.4248047,0.1005859
924,-15.125,99.875,47.875,-0.449707,0.4658203,0.3676758,0.652832,-0.4477539,0.1083984
925,-53.4375,86.1875,46.1875,-0.7998047,0.5043945,0.644043,0.6689453,-0.4404297,0.1186523
926,-58.75,58.8125,50.375,-0.9711914,0.4619141,0.6679688,0.6689453,-0.4404297,0.1186523
927,-51,18.9375,43.5,-0.7958984,0.4619141,0.8100586,0.6713867,-0.4506836,0.1293945
928,40.125,32.4375,26,-1.198242,0.1914063,1.154297,0.6713867,-0.4506836,0.1293945
929,63.625,-18.0625,5.0625,-0.7802734,0.1064453,0.9487305,0.6582031,-0.4453125,0.1269531
930,84.5625,-30,3.3125,-0.815918,0.2919922,0.5693359,0.6660156,-0.4506836,0.1293945
931,63.5625,-36.4375,6.875,-0.8398438,0.3188477,0.5375977,0.6660156,-0.4506836,0.1293945
932,33.0625,-37.8125,6.125,-0.8237305,0.2802734,0.6245117,0.6582031,-0.4506836,0.137207
933,10.4375,-35.0625,-5.5,-0.6645508,0.3847656,0.5732422,0.6582031,-0.4506836,0.137207
934,3.1875,-23.125,-33.3125,-0.6728516,0.3691406,0.6601563,0.6552734,-0.4453125,0.1293945
935,7.9375,-9.5,-31.8125,-0.7880859,0.02929688,0.7270508,0.6713867,-0.4477539,0.1137695
936,10.5,-4.5,-21.875,-0.8081055,0.02539063,0.7075195,0.6713867,-0.4477539,0.1137695
937,10.5,2.1875,-15.625,-0.8476563,0.07568359,0.6757813,0.6582031,-0.4506836,0.1108398
938,8.0625,8.8125,-7.75,-0.8041992,0.2148438,0.6879883,0.6689453,-0.4428711,0.1162109
939,0.9375,6.875,-3.6875,-0.8041992,0.3076172,0.7036133,0.6689453,-0.4428711,0.1162109
940,-1.8125,-1.5,-0.5,-0.8637695,0.3613281,0.7075195,0.6606445,-0.4428711,0.1108398
941,-5.4375,-13.6875,8.9375,-0.8515625,0.2998047,0.7075195,0.6606445,-0.4428711,0.1108398
942,-7.9375,-25.375,13.75,-0.8237305,0.3344727,0.7114258,0.6767578,-0.4453125,0.1083984
943,-6.875,-29.9375,17.125,-0.8237305,0.2958984,0.7431641,0.6660156,-0.4453125,0.1108398
944,4,-25.4375,22.6875,-0.8120117,0.2802734,0.7944336,0.6660156,-0.4453125,0.1108398
945,24.3125,-20.4375,26.0625,-0.8120117,0.2456055,0.8579102,0.6606445,-0.4506836,0.1137695
946,46.0625,-10.125,31.125,-0.8041992,0.2299805,0.9208984,0.6606445,-0.4506836,0.1137695
947,62.25,42.6875,33.6875,-0.6923828,0.3613281,0.9487305,0.6689453,-0.453125,0.1137695
948,68.4375,35.375,30.8125,-0.8041992,0.3461914,0.8774414,0.6635742,-0.4555664,0.1186523
949,88.6875,53.5,27.8125,-0.6884766,0.3149414,0.9643555,0.6635742,-0.4555664,0.1186523
950,98.8125,83.625,19,-0.6289063,0.3227539,0.9448242,0.6552734,-0.4555664,0.1186523
951,110.5,112.1875,15.1875,-0.652832,0.2880859,1,0.6582031,-0.4609375,0.1240234
952,153.875,156.125,9.25,-0.5415039,0.3461914,0.9365234,0.6582031,-0.4609375,0.1240234
953,198.75,205.25,-7.375,-0.6367188,0.3305664,1.039551,0.6635742,-0.4707031,0.1425781
954,217.875,243.125,-10.875,-0.5932617,0.2998047,0.7392578,0.6635742,-0.4707031,0.1425781
955,211.5,253.75,-19.875,-0.5932617,0.2612305,0.4663086,0.6606445,-0.4838867,0.1743164
956,192.125,237.625,-22.9375,-0.5454102,0.1796875,0.3398438,0.6689453,-0.480957,0.2055664
957,177.375,216.4375,-19.4375,-0.5888672,0.168457,0.371582,0.6689453,-0.480957,0.2055664
959,162.0625,198.125,-17.9375,-0.6166992,0.1835938,0.3911133,0.6767578,-0.4785156,0.2294922
960,154.25,193.6875,-13.9375,-0.5888672,0.2260742,0.3950195,0.6767578,-0.4785156,0.2294922
961,142.0625,198.4375,-14.9375,-0.5649414,0.2998047,0.4072266,0.6743164,-0.4707031,0.2558594
962,125.6875,203.9375,-21.8125,-0.6606445,0.3769531,0.371582,0.6713867,-0.4707031,0.2871094
963,109.5,213.25,-35.0625,-0.6645508,0.3266602,0.3242188,0.6713867,-0.4707031,0.2871094
964,91.5,214.875,-50.0625,-0.6806641,0.3227539,0.2729492,0.6660156,-0.4580078,0.300293
965,88.1875,217.75,-60.5,-0.612793,0.2919922,0.2646484,0.6713867,-0.4477539,0.3320313
966,81,221.25,-70.8125,-0.640625,0.2685547,0.1977539,0.6713867,-0.4477539,0.3320313
967,86.375,226,-76.6875,-0.6845703,0.2612305,0.1342773,0.6713867,-0.4453125,0.3530273
968,86.5625,220.125,-83.5625,-0.7246094,0.2880859,0.07519531,0.6713867,-0.4453125,0.3530273
969,85.6875,209.875,-92,-0.7802734,0.3344727,0.05126953,0.6552734,-0.4301758,0.3740234
970,75.0625,194.25,-102.3125,-0.7763672,0.3076172,0.00390625,0.6499023,-0.4301758,0.4003906
971,63.9375,177.1875,-114.125,-0.8198242,0.3188477,-0.01904297,0.6499023,-0.4301758,0.4003906
972,55.6875,161.8125,-127.5,-0.855957,0.3925781,0.01953125,0.6396484,-0.4072266,0.4135742
973,60.6875,149.6875,-148.5625,-0.9033203,0.3886719,0.04736328,0.6396484,-0.4072266,0.4135742
974,71.0625,137.0625,-172.625,-0.84375,0.3344727,0.07128906,0.6450195,-0.394043,0.4399414
975,72.9375,120.5,-194.0625,-0.7719727,0.2685547,-0.09033203,0.6206055,-0.3735352,0.4506836
976,66.875,103.5625,-205.3125,-0.668457,0.1875,-0.07080078,0.6206055,-0.3735352,0.4506836
977,57.6875,94.6875,-217.4375,-0.640625,0.1835938,-0.1577148,0.6259766,-0.340332,0.4663086
978,35.8125,83.5625,-215.9375,-0.5849609,0.1025391,-0.1337891,0.6206055,-0.3227539,0.4716797
979,14.25,88.3125,-210.4375,-0.6328125,0.09863281,-0.2841797,0.6206055,-0.3227539,0.4716797
980,-25.1875,84.25,-192,-0.7480469,-0.01660156,-0.3354492,0.6049805,-0.296875,0.4819336
981,-56.375,92.625,-171.25,-0.7246094,-0.01269531,-0.4106445,0.6049805,-0.296875,0.4819336
982,-65.5,115.75,-169.1875,-0.6606445,-0.09375,-0.3198242,0.5966797,-0.2866211,0.4873047
983,-45.125,151.5625,-168.25,-0.8515625,-0.2446289,-0.4580078,0.5834961,-0.2792969,0.5029297
984,-33.5,160.25,-159.375,-0.9790039,-0.3027344,-0.5371094,0.5834961,-0.2792969,0.5029297
985,-9.375,178.125,-158.75,-0.9589844,-0.1289063,-0.4145508,0.5698242,-0.2509766,0.5136719
986,15.25,196.5625,-160.4375,-1.162109,-0.1904297,-0.4697266,0.5698242,-0.2509766,0.5136719
987,23.3125,204.0625,-167.25,-1.110352,-0.09375,-0.4858398,0.5541992,-0.2509766,0.5292969
988,15.3125,204.4375,-178.5625,-0.9829102,-0.1132813,-0.5410156,0.5219727,-0.2250977,0.550293
989,-6.375,194.8125,-190.5625,-0.9311523,-0.2021484,-0.6083984,0.5219727,-0.2250977,0.550293
990,-6.0625,194.6875,-198.4375,-0.8320313,-0.2368164,-0.5605469,0.5112305,-0.215332,0.5634766
991,-7,196.625,-192.625,-0.8320313,-0.3452148,-0.5805664,0.5112305,-0.215332,0.5634766
992,4.8125,190.25,-171.9375,-0.871582,-0.402832,-0.5961914,0.5112305,-0.215332,0.5634766
993,10.0625,173.125,-138.1875,-0.9951172,-0.3955078,-0.7426758,0.4443359,-0.1845703,0.5927734
994,5.9375,148.125,-103.8125,-0.9589844,-0.402832,-0.71875,0.4443359,-0.1845703,0.5927734
995,3.1875,131,-83.4375,-0.9311523,-0.402832,-0.675293,0.4443359,-0.1845703,0.5927734
996,-0.5,114.875,-71.8125,-0.8994141,-0.3256836,-0.6162109,0.4204102,-0.1616211,0.6083984
997,3.4375,93.625,-59.8125,-0.9873047,-0.3837891,-0.6518555,0.4204102,-0.1616211,0.6083984
998,7.8125,71.8125,-39.5,-0.9033203,-0.3837891,-0.6318359,0.4204102,-0.1616211,0.6083984
999,10.625,50.25,-19.75,-0.8955078,-0.4067383,-0.6831055,0.4204102,-0.1616211,0.6083984
1000,12,25,4.5,-0.8676758,-0.3955078,-0.6479492,0.4072266,-0.1616211,0.6083984
1001,13.625,1.5625,27.1875,-0.8637695,-0.4067383,-0.6635742,0.4072266,-0.1616211,0.6083984
1002,16.5,-18.5,49.3125,-0.855957,-0.434082,-0.6435547,0.4072266,-0.1616211,0.6083984
1003,21.625,-34,71.1875,-0.8320313,-0.402832,-0.675293,0.4018555,-0.1616211,0.6108398
1004,33.25,-47.0625,91.625,-0.8598633,-0.3994141,-0.6000977,0.4018555,-0.1616211,0.6108398
1005,51.5625,-57.25,110,-0.855957,-0.3798828,-0.5449219,0.4018555,-0.1616211,0.6108398
1006,72.4375,-61.9375,127.125,-0.8398438,-0.3139648,-0.4736328,0.4233398,-0.1689453,0.605957
1007,85,-66.25,140.375,-0.8515625,-0.2099609,-0.4501953,0.4233398,-0.1689453,0.605957
1008,90.75,-68.6875,153.25,-0.8676758,-0.2021484,-0.4145508,0.4233398,-0.1689453,0.605957
1009,92.6875,-75,171,-0.9633789,-0.175293,-0.4301758,0.4418945,-0.1767578,0.5874023
1010,92.25,-83.4375,179,-0.9711914,-0.175293,-0.3789063,0.4418945,-0.1767578,0.5874023
1011,93.5625,-89.75,181,-0.9750977,-0.1635742,-0.3710938,0.4418945,-0.1767578,0.5874023
1012,92.0625,-98.1875,179.6875,-0.8955078,-0.1865234,-0.434082,0.4418945,-0.1767578,0.5874023
1013,86.9375,-111.9375,177.25,-0.9116211,-0.2250977,-0.3945313,0.4819336,-0.1894531,0.5585938
1014,84.3125,-124.25,171.9375,-0.9116211,-0.175293,-0.4223633,0.4819336,-0.1894531,0.5585938
1015,79.3125,-131.125,167.1875,-0.9194336,-0.1518555,-0.402832,0.4819336,-0.1894531,0.5585938
1016,72.8125,-131.8125,160.875,-0.9750977,-0.08251953,-0.347168,0.5195313,-0.1894531,0.5292969
1017,69.125,-130.6875,151.6875,-1.022949,-0.03613281,-0.331543,0.5195313,-0.1894531,0.5292969
1018,62.875,-124.625,143,-1.066895,0.02929688,-0.2485352,0.5195313,-0.1894531,0.5292969
1019,54.1875,-119.0625,135.9375,-1.070801,0.009765625,-0.2407227,0.543457,-0.2099609,0.5268555
1020,43.8125,-117.1875,131.0625,-0.9790039,0.04101563,-0.2407227,0.543457,-0.2099609,0.5268555
1021,29.375,-112.5625,126.625,-0.9550781,0.04443359,-0.2563477,0.543457,-0.2099609,0.5268555
1022,20.6875,-108.4375,122.1875,-0.9355469,0.08740234,-0.2050781,0.578125,-0.2250977,0.4873047
1024,12.625,-106.5,122.5,-0.9511719,0.04833984,-0.2050781,0.578125,-0.2250977,0.4873047
1025,8,-98.0625,124.625,-0.9672852,0.04101563,-0.1655273,0.578125,-0.2250977,0.4873047
1026,10.375,-90.375,125.875,-0.9355469,0.05224609,-0.1416016,0.578125,-0.2250977,0.4873047
1027,19,-83.5625,122.3125,-0.9472656,0.08740234,-0.1538086,0.5996094,-0.2509766,0.4663086
1028,18.6875,-76.625,115.4375,-0.9194336,0.1103516,-0.1577148,0.5996094,-0.2587891,0.4638672
1029,22.5,-73.125,98.0625,-0.9550781,0.1259766,-0.1298828,0.5996094,-0.2587891,0.4638672
1030,26.9375,-73.75,83.875,-0.9790039,0.1103516,-0.1655273,0.6049805,-0.269043,0.4506836
1031,19.3125,-69.375,71.0625,-0.9589844,0.1606445,-0.1337891,0.6049805,-0.269043,0.4506836
1032,9.3125,-68.4375,57.5,-1.015137,0.1411133,-0.1811523,0.6206055,-0.269043,0.4477539
1033,-5,-68.375,49.25,-0.9790039,0.1298828,-0.1416016,0.6235352,-0.2866211,0.4267578
1034,-22.1875,-65.8125,44.75,-0.9589844,0.1064453,-0.1655273,0.6235352,-0.2866211,0.4267578
1035,-45.4375,-65.6875,44.625,-0.9511719,0.06787109,-0.2050781,0.6259766,-0.2890625,0.4399414
1036,-72.875,-70,48.3125,-0.8916016,0.07177734,-0.2011719,0.6181641,-0.2919922,0.4165039
1037,-69.4375,-69.5625,44.0625,-0.9355469,0.1875,-0.05859375,0.6181641,-0.2919922,0.4165039
1038,-71.4375,-63.875,49.8125,-0.9672852,0.1489258,-0.09423828,0.6235352,-0.3095703,0.4213867
1039,-78.625,-54,53.625,-0.9155273,0.168457,-0.08251953,0.6235352,-0.3095703,0.4213867
1040,-87.1875,-20.375,23.375,-0.9233398,0.168457,-0.01513672,0.6396484,-0.3125,0.4135742
1041,-75.6875,3,-6.5,-0.8955078,0.1298828,-0.003417969,0.6420898,-0.3198242,0.4111328
1042,-74.625,20.125,-31.5625,-0.9233398,0.168457,-0.046875,0.6420898,-0.3198242,0.4111328
1043,-70.375,39.1875,-63.9375,-0.9511719,0.1411133,-0.06689453,0.6367188,-0.3198242,0.4213867
1044,-67.875,47.75,-93.5625,-0.9672852,0.1220703,-0.05859375,0.6367188,-0.3198242,0.4213867
1045,-42.8125,58.25,-124.6875,-0.9589844,0.1489258,0,0.6342773,-0.3095703,0.4291992
1046,-16.625,64.1875,-141.5625,-0.9829102,0.137207,-0.05859375,0.6259766,-0.3125,0.4345703
1047,-3.8125,65.4375,-150.3125,-0.9912109,0.06396484,-0.1259766,0.6259766,-0.3125,0.4345703
1048,-7.375,62.25,-154,-0.9311523,0.06005859,-0.2128906,0.6206055,-0.2919922,0.4375
1049,-20.1875,59.375,-153.3125,-0.9072266,0.05615234,-0.1733398,0.6049805,-0.2792969,0.4453125
1050,-35.25,55.375,-148.3125,-0.9589844,0.01757813,-0.1733398,0.6049805,-0.2792969,0.4453125
1051,-62,39.625,-137.25,-0.9233398,0.001953125,-0.1811523,0.6152344,-0.2661133,0.4477539
1052,-86.8125,14.375,-127.9375,-0.9550781,0.02148438,-0.2329102,0.6152344,-0.2661133,0.4477539
1053,-103.3125,-12.375,-121.125,-0.9394531,-0.0009765625,-0.2167969,0.6098633,-0.2558594,0.453125
1054,-123,-37.0625,-115,-0.9633789,0.009765625,-0.2407227,0.5942383,-0.253418,0.453125
1055,-133.25,-56.25,-112.125,-0.9433594,-0.02441406,-0.1733398,0.5942383,-0.253418,0.453125
1056,-125.875,-67.625,-102.6875,-0.9990234,-0.06298828,-0.09033203,0.5996094,-0.2485352,0.4609375
1057,-93.1875,-65.875,-89.5,-0.9672852,-0.09375,-0.01513672,0.5996094,-0.2485352,0.4609375
1058,-71.25,-56.125,-69.625,-0.9194336,-0.09375,-0.0234375,0.5966797,-0.253418,0.4584961
1059,-45.5625,-42.875,-55.125,-0.9672852,-0.06298828,0.05517578,0.5966797,-0.2329102,0.4638672
1060,-15.4375,-27.1875,-42,-0.9912109,-0.08642578,0.1225586,0.5966797,-0.2329102,0.4638672
1061,1.25,-21.6875,-32.9375,-1.00293,-0.05908203,0.01953125,0.5966797,-0.2431641,0.4506836
1062,7.6875,-21.6875,-29.375,-0.9394531,-0.09375,-0.0390625,0.5996094,-0.2329102,0.4584961
1063,13.4375,-23.125,-30.125,-0.9433594,-0.1171875,-0.09033203,0.5996094,-0.2329102,0.4584961
1064,12.9375,-24.0625,-30.9375,-0.9633789,-0.09375,-0.08251953,0.5942383,-0.2304688,0.4453125
1065,12.8125,-20.875,-30.6875,-0.9711914,-0.07080078,-0.1459961,0.5942383,-0.2304688,0.4453125
1066,3.25,-15.1875,-31.5625,-0.9873047,-0.04394531,-0.1416016,0.5942383,-0.2226563,0.4453125
1067,-5.75,-5.6875,-35.5625,-1.015137,-0.04003906,-0.1220703,0.5966797,-0.2280273,0.4399414
1068,-14.4375,0.75,-42.5625,-0.9633789,-0.04003906,-0.1020508,0.5966797,-0.2280273,0.4399414
1069,-21.375,14.4375,-49.9375,-0.9355469,0.001953125,0.015625,0.5888672,-0.2099609,0.4584961
1070,-14.3125,42.1875,-55.4375,-1.046875,-0.1171875,0.02783203,0.5888672,-0.2099609,0.4584961
1071,-8.125,34.125,-43.8125,-1.186035,-0.175293,-0.046875,0.5888672,-0.215332,0.4453125
1072,2.9375,33.5625,-37,-1.058594,-0.125,0.08300781,0.5805664,-0.2050781,0.4399414
1073,7.875,60.4375,-48.9375,-0.9672852,-0.05517578,-0.01123047,0.5805664,-0.2050781,0.4399414
1074,-0.6875,71.4375,-55.125,-1.038574,-0.1054688,-0.05859375,0.5805664,-0.2021484,0.4423828
1075,-0.8125,70,-48.5625,-1.00293,-0.1557617,-0.08251953,0.5727539,-0.199707,0.4477539
1076,8.3125,74.6875,-43.5,-0.9951172,-0.1713867,-0.1376953,0.5727539,-0.199707,0.4477539
1077,9.1875,72.3125,-35.8125,-0.9829102,-0.175293,-0.2368164,0.5673828,-0.1918945,0.4663086
1078,10.125,61.9375,-26.875,-1.034668,-0.2177734,-0.2050781,0.5673828,-0.1918945,0.4663086
1079,10.5625,56.875,-22.875,-1.015137,-0.1518555,-0.2011719,0.5620117,-0.1870117,0.4716797
1080,-1.9375,50.375,-22,-1.006836,-0.1210938,-0.2167969,0.5595703,-0.1972656,0.4765625
1081,-11.3125,45.1875,-21.9375,-1.034668,-0.1557617,-0.1298828,0.5595703,-0.1972656,0.4765625
1082,-10.5625,35.0625,-19.1875,-1.015137,-0.1787109,-0.1259766,0.5566406,-0.1816406,0.4873047
1083,-4.5,21.6875,-17.5625,-1.010742,-0.1787109,-0.1416016,0.5566406,-0.1816406,0.4873047
1084,0.8125,3,-17.3125,-1.050781,-0.1826172,-0.1655273,0.5512695,-0.1870117,0.4765625
1085,7.125,-16.75,-17.875,-1.066895,-0.2216797,-0.1220703,0.5595703,-0.1870117,0.4819336
1086,16.625,-34.375,-18.125,-1.078613,-0.2060547,-0.1416016,0.5595703,-0.1870117,0.4819336
1087,20.6875,-46.4375,-18.1875,-1.094727,-0.175293,-0.046875,0.5595703,-0.1845703,0.4765625
1089,21.5625,-50.375,-18.75,-1.130371,-0.144043,-0.07470703,0.5488281,-0.1918945,0.4741211
1090,17.9375,-48.5,-21,-1.102539,-0.1674805,-0.06689453,0.5488281,-0.1918945,0.4741211
1091,0.3125,-42.625,-31.4375,-1.030762,-0.04394531,-0.05859375,0.5488281,-0.1689453,0.4663086
1092,-2.3125,-40.875,-35.0625,-1.110352,-0.1943359,-0.07861328,0.5488281,-0.1689453,0.4663086
1093,-8.25,-49.5625,-39.6875,-1.078613,-0.1328125,-0.08642578,0.5620117,-0.1845703,0.4584961
1094,-17.3125,-50.4375,-48.5,-1.110352,-0.2290039,-0.1220703,0.5649414,-0.1640625,0.4555664
1095,-14.0625,-47.875,-46.125,-1.08252,-0.2216797,-0.06689453,0.5649414,-0.1640625,0.4555664
1096,-7.5625,-42.3125,-43.8125,-1.102539,-0.2290039,-0.05078125,0.5566406,-0.1689453,0.453125
1097,-1.625,-37.25,-38.6875,-1.106445,-0.2675781,-0.046875,0.5566406,-0.1689453,0.453125
1098,6.25,-26.5625,-30.9375,-1.066895,-0.2910156,-0.0390625,0.5566406,-0.1616211,0.4555664
1099,13.75,-13,-18.6875,-1.050781,-0.2485352,-0.0390625,0.5620117,-0.1538086,0.453125
1100,11.1875,-0.3125,-11.5,-1.086426,-0.1982422,-0.01513672,0.5620117,-0.1538086,0.453125
1101,8.5625,11.6875,-11.9375,-1.015137,-0.1865234,0.01171875,0.5512695,-0.1586914,0.4423828
1102,8.5,16.375,-18.5,-1.038574,-0.2060547,-0.02734375,0.5566406,-0.1513672,0.4584961
1103,10.1875,13.25,-24.4375,-1.019043,-0.1943359,-0.03125,0.5566406,-0.1513672,0.4584961
1104,12.125,4.125,-28.875,-1.010742,-0.2138672,-0.05078125,0.5566406,-0.15625,0.4453125
1105,10.6875,-6.6875,-32.4375,-1.034668,-0.1982422,-0.01513672,0.5566406,-0.15625,0.4453125
1106,4.375,-14.25,-34.6875,-1.022949,-0.2060547,-0.05078125,0.5488281,-0.1538086,0.4423828
1107,-5.3125,-23.1875,-31.9375,-1.015137,-0.2407227,-0.1298828,0.5458984,-0.1435547,0.4423828
1108,-12.625,-34.4375,-23.5,-1.006836,-0.2021484,-0.09423828,0.5458984,-0.1435547,0.4423828
1109,-15.125,-38.5,-14.6875,-0.9550781,-0.2329102,-0.05078125,0.5566406,-0.1459961,0.4506836
1110,-15.75,-37.75,-9.0625,-0.9829102,-0.1826172,0.01171875,0.5566406,-0.1459961,0.4506836
1111,-14.0625,-33.4375,-7.0625,-1.006836,-0.2216797,0.00390625,0.5488281,-0.1513672,0.4477539
1112,-15,-31.375,-9.9375,-1.038574,-0.2216797,-0.06298828,0.5488281,-0.1435547,0.4453125
1113,-15.4375,-29.875,-18.5,-1.054688,-0.2602539,-0.0546875,0.5488281,-0.1435547,0.4453125
1114,-21.75,-27.875,-33.125,-1.046875,-0.2216797,-0.1416016,0.5541992,-0.1411133,0.4375
1115,-33.125,-23.0625,-49.1875,-1.038574,-0.2368164,-0.1220703,0.5488281,-0.1357422,0.4399414
1116,-41.1875,-13.875,-61.25,-0.9711914,-0.2753906,-0.0546875,0.5488281,-0.1357422,0.4399414
1117,-41.5625,1.125,-68.25,-0.9790039,-0.2524414,-0.05078125,0.5512695,-0.1357422,0.4399414
1118,-31.0625,21.875,-75.375,-0.8637695,-0.2524414,-0.1416016,0.5512695,-0.1357422,0.4399414
1119,-17.625,24.9375,-69.75,-0.7841797,-0.3452148,-0.0234375,0.5488281,-0.1333008,0.4477539
1120,12.9375,7.0625,-53.875,-0.8081055,-0.3955078,-0.1220703,0.5488281,-0.1357422,0.4477539
1121,11.25,-3.8125,-45.625,-0.7880859,-0.3217773,-0.1972656,0.5488281,-0.1357422,0.4477539
1122,10.0625,-17.5,-34.6875,-0.7802734,-0.3798828,-0.1577148,0.5351563,-0.1230469,0.4477539
1123,23.3125,-36.875,-26.25,-0.7563477,-0.3642578,-0.1499023,0.5351563,-0.1230469,0.4477539
1124,26.6875,-36.375,-23.8125,-0.7719727,-0.3452148,-0.1181641,0.5405273,-0.1254883,0.4453125
1125,31.4375,-12.625,-34.5,-0.8237305,-0.4106445,-0.2011719,0.543457,-0.1152344,0.4291992
1126,26.9375,-30.25,-25.3125,-0.7958984,-0.3105469,-0.07080078,0.543457,-0.1152344,0.4291992
1127,11.9375,-27.875,-24.75,-0.8676758,-0.3564453,-0.1020508,0.5351563,-0.112793,0.4423828
1128,14.9375,-29,-23.5,-0.8359375,-0.3491211,0.09863281,0.5488281,-0.1074219,0.4345703
1129,20.8125,-21.75,-20.3125,-0.8598633,-0.2832031,-0.1020508,0.5488281,-0.1074219,0.4345703
1130,-37.9375,-174.4375,-0.875,-0.4619141,0.237793,1.102539,0.5351563,-0.1152344,0.4291992
1131,-52,-135.5,-51.875,-1.090332,-0.1787109,0.5732422,0.5351563,-0.1152344,0.4291992
1132,-39.6875,-120.0625,-38.875,-1.162109,-0.402832,0.2646484,0.5380859,-0.112793,0.4111328
1133,-36.4375,-105,-44.4375,-0.9672852,-0.2675781,0.2963867,0.543457,-0.1049805,0.4057617
1134,-30.9375,-55.5,-44.875,-0.9951172,-0.3256836,0.1816406,0.543457,-0.1049805,0.4057617
1135,-30.4375,-18.125,-39.125,-0.8515625,-0.3217773,0.2729492,0.5488281,-0.1049805,0.4057617
1136,-40.875,13.5,-41.0625,-0.8994141,-0.2910156,0.1464844,0.5488281,-0.1049805,0.4057617
1137,-47.3125,32.3125,-35.6875,-0.9072266,-0.3217773,0.1977539,0.543457,-0.1049805,0.4135742
1138,-54.5,39.625,-19.0625,-0.8754883,-0.3139648,0.2094727,0.5380859,-0.1049805,0.4189453
1139,-55.9375,46,-12.8125,-0.8515625,-0.2753906,0.1621094,0.5380859,-0.1049805,0.4189453
1140,-54.5,27.5,-0.625,-0.8598633,-0.2675781,0.2373047,0.5488281,-0.1025391,0.4243164
1141,-52.8125,18.125,6.5625,-0.8916016,-0.2641602,0.2016602,0.5327148,-0.1103516,0.4243164
1142,-53.375,3.3125,2,-1.106445,-0.2910156,0.1899414,0.5327148,-0.1103516,0.4243164
1143,-50.625,-22.75,-4.6875,-1.118652,-0.2988281,0.05517578,0.5380859,-0.1103516,0.4291992
1144,-45.6875,-48.25,-9.5625,-1.122559,-0.3720703,0.2412109,0.5380859,-0.1103516,0.4291992
1145,-38.6875,-80.25,-8.6875,-1.086426,-0.3105469,0.1699219,0.5273438,-0.1103516,0.4243164
1146,-41.6875,-110.75,-10.3125,-1.074707,-0.3413086,0.06347656,0.543457,-0.1103516,0.4345703
1147,-29.375,-113.3125,0.9375,-1.090332,-0.7236328,-0.1894531,0.543457,-0.1103516,0.4345703
1148,-23.75,-158.8125,-9.4375,-1.015137,-0.3452148,0.08300781,0.5405273,-0.112793,0.4243164
1149,-34.5625,-182.1875,-14.9375,-0.8793945,-0.3256836,0.2172852,0.5405273,-0.112793,0.4243164
1150,-21.4375,-180.25,-2.9375,-0.8754883,-0.3916016,0.300293,0.5620117,-0.1152344,0.4003906
1151,-13.3125,-195.4375,10.9375,-0.8994141,-0.484375,0.1621094,0.5698242,-0.112793,0.3901367
1152,2.5625,-171.0625,16.6875,-0.7641602,-0.453125,0.07519531,0.5698242,-0.112793,0.3901367
1154,-5.875,-148.3125,9.3125,-0.7802734,-0.4492188,0.02783203,0.5649414,-0.1206055,0.3818359
1155,-11.375,-151.3125,17.375,-0.5532227,-0.3876953,0.1225586,0.5649414,-0.1103516,0.3637695
1156,-4.4375,-156.625,35.25,-0.4335938,-0.3720703,0.1108398,0.5649414,-0.1103516,0.3637695
1157,-7.8125,-158.4375,52.1875,-0.4575195,-0.402832,-0.01513672,0.5834961,-0.112793,0.3452148
1158,0.1875,-154.1875,64.5625,-0.3740234,-0.3720703,-0.1655273,0.5834961,-0.112793,0.3452148
1159,-0.75,-129.6875,63.5625,-0.6088867,-0.4223633,-0.01513672,0.5888672,-0.1230469,0.3266602
1160,-7.75,-96.8125,63.25,-0.652832,-0.3720703,0.1225586,0.6049805,-0.1254883,0.3266602
1161,-11.875,-57.8125,51.1875,-0.7246094,-0.3139648,0.1816406,0.6049805,-0.1254883,0.3266602
1162,-17.0625,-20.75,36.125,-0.8041992,-0.2792969,0.2094727,0.5942383,-0.1459961,0.3242188
1163,-28.5625,-0.6875,23.4375,-0.855957,-0.2832031,0.06347656,0.5942383,-0.1459961,0.3242188
1164,-29.5625,-24.3125,14.5625,-0.8955078,-0.2060547,0.328125,0.5913086,-0.1435547,0.3134766
1165,-30.9375,-32.75,12.25,-1.086426,-0.2177734,0.4345703,0.6074219,-0.1381836,0.3295898
1166,-32,-31.125,12.875,-1.102539,-0.1865234,0.7270508,0.6074219,-0.1381836,0.3295898
1167,-21,-36.6875,-6.1875,-1.034668,-0.09375,0.6005859,0.6098633,-0.1411133,0.3212891
1168,-4.5,-139.4375,-1.375,-0.9550781,-0.2485352,0.8022461,0.5996094,-0.1435547,0.3081055
1169,12.0625,-148.25,6.875,-0.9355469,-0.3955078,0.1621094,0.5996094,-0.1435547,0.3081055
1170,36.6875,-110.5,-11.9375,-0.8637695,-0.3178711,0.2768555,0.6074219,-0.1484375,0.3110352
1171,40.3125,-81.625,-33.375,-0.8637695,-0.4223633,0.2016602,0.6074219,-0.1484375,0.3110352
1172,53.4375,-90.4375,-35.875,-0.8398438,-0.402832,0.1503906,0.5996094,-0.15625,0.2792969
1173,68.0625,-116.625,-21.375,-0.8637695,-0.503418,0.05908203,0.6049805,-0.1357422,0.2822266
1174,86.5,-132,-10.6875,-0.9433594,-0.5732422,-0.09033203,0.6049805,-0.1357422,0.2822266
1175,86.1875,-156.25,-7.125,-0.6728516,-0.7431641,-0.5688477,0.5966797,-0.1308594,0.2529297
1176,115,-244.5625,24.5,-1.150391,-0.6464844,0.612793,0.5966797,-0.1308594,0.2529297
1177,75.6875,-154.8125,-17.625,-1.273438,-0.8046875,-0.9482422,0.6074219,-0.1357422,0.2426758
1178,44.625,-51.375,-62.0625,-0.8515625,-0.2675781,0.1342773,0.6074219,-0.1357422,0.2216797
1179,2.6875,-0.1875,-50.25,-0.8398438,-0.4570313,-0.06298828,0.6074219,-0.1357422,0.2216797
1180,15.5,-38.9375,-18.375,-1.015137,-0.5268555,0.015625,0.6074219,-0.1279297,0.2216797
1181,46.75,-101.6875,-2.125,-1.138184,-0.484375,0.06347656,0.5966797,-0.1176758,0.203125
1182,67.1875,-143.25,-3.0625,-1.118652,-0.5112305,0.1977539,0.5966797,-0.1176758,0.203125
1183,81.5625,-166.8125,-15.0625,-1.102539,-0.4418945,0.2529297,0.6049805,-0.1357422,0.2055664
1184,118.4375,-210.9375,-2.875,-0.8955078,-0.4145508,0.4345703,0.6049805,-0.1357422,0.2055664
1185,102.75,-167.375,8.125,-1.0625,-0.4570313,0.4824219,0.5942383,-0.1230469,0.1635742
1186,105.6875,-146,-7.8125,-0.8916016,-0.3256836,0.7392578,0.5913086,-0.1308594,0.1503906
1187,75.5625,0.1875,-21.3125,-1.14209,0.7983398,1.932617,0.5913086,-0.1308594,0.1503906
1188,112.375,-179.3125,0.75,-0.1352539,0.1489258,1.055176,0.5859375,-0.1308594,0.1318359
1189,103.125,-111.6875,20.3125,-0.6728516,-0.6464844,0.3242188,0.5859375,-0.1308594,0.1318359
1190,107.9375,-41.6875,-26.625,-0.6845703,-0.2910156,0.6757813,0.5913086,-0.1230469,0.1269531
1191,143.125,-199.3125,-32.3125,-0.2070313,0.3808594,1.885254,0.5805664,-0.1357422,0.1005859
1192,99.75,-225,66.375,-0.5014648,-0.3916016,0.6484375,0.5805664,-0.1357422,0.1005859
1193,29.625,-188.8125,55.5,-0.7998047,0.5703125,1.268555,0.578125,-0.1459961,0.06640625
1194,93.375,-208.6875,75.0625,-0.5888672,-0.3491211,0.8579102,0.5673828,-0.1484375,0.04492188
1195,125.5625,-154.125,52,0.08691406,0.03710938,1.25293,0.5673828,-0.1484375,0.04492188
1196,120.9375,-108.375,63.125,-0.3144531,-0.02441406,1.25293,0.5595703,-0.1640625,0.02929688
1197,118.875,-84.375,43.4375,-0.5849609,0.02148438,0.8378906,0.5595703,-0.1640625,0.02929688
1198,103.625,-74.875,18.4375,-0.5415039,0.001953125,0.9208984,0.5566406,-0.1689453,0.01611328
1199,74.375,-76.5625,9.75,-0.3701172,0.01367188,0.8735352,0.5698242,-0.1845703,0.005859375
1200,81.125,-98.125,18.25,-0.4936523,-0.1557617,0.6005859,0.5698242,-0.1845703,0.005859375
1201,76.0625,-103.8125,10.4375,-0.6010742,-0.109375,0.7905273,0.5620117,-0.1894531,0.0004882813
1202,62.125,-82.3125,15.5,-0.6845703,-0.125,0.7314453,0.5620117,-0.1894531,0.0004882813
1203,55.375,-67.8125,28.5,-0.625,-0.1557617,0.8339844,0.5488281,-0.1870117,-0.009765625
1204,55,-54.5,27.375,-0.6166992,-0.1328125,0.9326172,0.5541992,-0.1972656,-0.02539063
1205,59.0625,-45.1875,26.6875,-0.5415039,-0.05908203,1.027832,0.5541992,-0.1972656,-0.02539063
1206,66.5625,-43.3125,19.5625,-0.4853516,0.02148438,1.114746,0.5488281,-0.1972656,-0.03320313
1207,71.25,-51.125,4.375,-0.4775391,0.02539063,1.20166,0.543457,-0.2075195,-0.04394531
1208,69.5,-59.8125,-2.4375,-0.5175781,0.01367188,1.209473,0.543457,-0.2075195,-0.04394531
1209,69,-65,-10.0625,-0.652832,-0.008789063,1.173828,0.5380859,-0.2177734,-0.05712891
1210,70.375,-67.3125,-19.5,-0.7084961,-0.09765625,1.118652,0.5380859,-0.2177734,-0.05712891
1211,72.375,-63.1875,-33.25,-0.5932617,-0.2060547,1.043457,0.5273438,-0.2202148,-0.05712891
1212,80.1875,-73.6875,-36.1875,-0.5493164,-0.159668,1.031738,0.5351563,-0.215332,-0.0703125
1213,74.25,-70,-30.625,-0.6289063,-0.1865234,0.8457031,0.5351563,-0.215332,-0.0703125
1214,79.5625,-72.1875,-29.125,-0.6367188,-0.1982422,0.956543,0.5219727,-0.2124023,-0.06738281
1215,78.0625,-88.125,-24.8125,-0.5571289,-0.2021484,0.9248047,0.5219727,-0.2124023,-0.06738281
1216,87.25,-98.375,-15.75,-0.6289063,-0.1557617,1.023926,0.5166016,-0.2177734,-0.08056641
1217,81.8125,-96,-9.5625,-0.6923828,-0.09375,1.094727,0.5058594,-0.2226563,-0.09912109
1219,84,-76.1875,0.125,-0.5649414,0.005859375,1.308105,0.5058594,-0.2226563,-0.09912109
1220,85.0625,-44.25,9.6875,-0.6450195,0.07177734,1.256836,0.4873047,-0.2382813,-0.1098633
1221,62.9375,-21.4375,2.9375,-0.6088867,0.04443359,1.185547,0.4951172,-0.2456055,-0.1123047
1222,63.5625,-15.75,-2.9375,-0.5493164,-0.02441406,1.193848,0.4951172,-0.2456055,-0.1123047
1223,52.8125,-19.3125,0,-0.4975586,0.07568359,1.031738,0.4980469,-0.2587891,-0.1069336
1224,45.5625,-26.0625,2.5,-0.6450195,-0.01269531,1.075195,0.4980469,-0.2587891,-0.1069336
1225,51.75,-36.5,9.9375,-0.4736328,0.01757813,0.9091797,0.4873047,-0.253418,-0.1147461
1226,61.4375,-72.8125,7.5625,-0.4140625,0.01367188,1.3125,0.4926758,-0.2612305,-0.1230469
1227,57.5,-87.625,3.0625,-0.5771484,0.09863281,1.079102,0.4926758,-0.2612305,-0.1230469
1228,53.0625,-97.5625,-17.875,-0.7919922,-0.06689453,0.984375,0.4926758,-0.2612305,-0.1230469
1229,45.25,-107.4375,-35.5625,-0.6489258,-0.004882813,1.173828,0.4926758,-0.2612305,-0.1230469
1230,37.8125,-111.1875,-33.125,-0.7841797,-0.1904297,0.699707,0.4741211,-0.2612305,-0.1386719
1231,59.4375,-121.125,-26.625,-0.5014648,-0.1479492,0.972168,0.4741211,-0.2612305,-0.1386719
1232,110.3125,-133.8125,-3.125,-0.2348633,-0.1015625,0.9091797,0.4741211,-0.2612305,-0.1386719
1233,152.5,-157.25,-12.9375,-0.449707,-0.2290039,0.8261719,0.4418945,-0.2714844,-0.1542969
1234,165.8125,-135.625,-12.0625,-0.2827148,-0.02441406,1.023926,0.4418945,-0.2714844,-0.1542969
1235,182,-103.25,3,0.03955078,0.2651367,1.458496,0.4418945,-0.2714844,-0.1542969
1236,161.5,-51.0625,16.5625,-0.1591797,0.3652344,0.7431641,0.4042969,-0.3022461,-0.1860352
1237,137.5,-21.8125,22,-0.00390625,0.4580078,1.347656,0.4042969,-0.3022461,-0.1860352
1238,120,19.4375,0.5625,0.04345703,0.597168,1.007813,0.4042969,-0.3022461,-0.1860352
1239,111.4375,31.375,0.125,-0.1713867,0.4462891,0.8222656,0.4018555,-0.3300781,-0.1938477
1240,62.875,34.5,-13.625,-0.2866211,0.4389648,0.8457031,0.4018555,-0.3300781,-0.1938477
1241,23.75,28.375,-8.3125,-0.2905273,0.4350586,0.6958008,0.4018555,-0.3300781,-0.1938477
1242,-4.5625,5.25,-9.5625,-0.4418945,0.3076172,0.6918945,0.4018555,-0.3300781,-0.1938477
1243,-7.9375,-21.75,-14.75,-0.5493164,0.1762695,0.9130859,0.4204102,-0.3432617,-0.1860352
1244,-9.9375,-46,-23.0625,-0.4936523,0.2763672,0.8222656,0.4204102,-0.3432617,-0.1860352
1245,7.625,-74.75,-25.1875,-0.5610352,0.1259766,1.05127,0.4204102,-0.3432617,-0.1860352
1246,12.375,-99.125,-44.75,-0.6806641,0.152832,1.035645,0.4179688,-0.3457031,-0.1914063
1247,13.8125,-122.875,-53.375,-0.6289063,0.2573242,1.229492,0.4179688,-0.3457031,-0.1914063
1248,-9.125,-130.1875,-69.6875,-0.6049805,0.3149414,1.260742,0.4179688,-0.3457031,-0.1914063
1249,23.0625,-132.25,-73.3125,-0.5454102,0.1875,1.25293,0.3886719,-0.3276367,-0.2070313
1250,24.5,-131.375,-81.5625,-0.4057617,0.1064453,1.628418,0.3886719,-0.3276367,-0.2070313
1251,31.125,-106.5,-70.9375,-0.4975586,0.2070313,1.169922,0.3886719,-0.3276367,-0.2070313
1252,35.5,-95.4375,-60.25,-0.2744141,0.1953125,1.316406,0.3564453,-0.3330078,-0.2255859
1253,37.6875,-98.5625,-56.4375,-0.1196289,0.203125,1.134277,0.3564453,-0.3330078,-0.2255859
1254,59.6875,-117.8125,-57.4375,-0.03173828,0.1259766,1.422852,0.3564453,-0.3330078,-0.2255859
1255,88.8125,-124.25,-50.1875,-0.1948242,0.08349609,1.019531,0.3564453,-0.3330078,-0.2255859
1256,97.1875,-109.875,-37.875,0.06738281,0.2299805,1.276855,0.3242188,-0.3354492,-0.2280273
1257,62.125,-80.1875,-21.125,0.04736328,0.2685547,1.158203,0.3242188,-0.3354492,-0.2280273
1258,63.5625,-50.1875,-21.3125,-0.3144531,0.1762695,1.043457,0.3242188,-0.3354492,-0.2280273
1259,50.5625,-12.75,10.1875,-0.175293,0.2919922,1.241211,0.3085938,-0.3505859,-0.2387695
1260,90.625,-16.8125,45.1875,0.1030273,0.4272461,0.9682617,0.3085938,-0.3505859,-0.2387695
1261,95.5625,-33,44.3125,-0.2548828,0.4155273,1.015625,0.3056641,-0.3632813,-0.2436523
1262,69.9375,-67.1875,13.6875,-0.203125,0.512207,1.122559,0.3032227,-0.3662109,-0.2490234
1263,44.5625,-97.625,-25.3125,-0.1352539,0.512207,0.940918,0.3032227,-0.3662109,-0.2490234
1264,13.4375,-127.8125,-49.875,-0.6010742,0.3383789,1.126465,0.2978516,-0.3686523,-0.246582
1265,52.9375,-114.0625,8.75,-0.1152344,0.6396484,0.8891602,0.2788086,-0.3813477,-0.2436523
1266,-179,-82.3125,-66.4375,1.102051,0.8793945,0.0078125,0.2788086,-0.3813477,-0.2436523
1267,7.6875,-145.5,-146.5625,-0.5571289,0.05615234,0.387207,0.2739258,-0.3662109,-0.2568359
1268,-30.375,-129.5625,-99.4375,-0.2705078,0.2998047,1.367676,0.2739258,-0.3662109,-0.2568359
1269,-78.1875,-91.9375,-41.5625,-0.2070313,0.2685547,1.067383,0.2495117,-0.3505859,-0.2519531
1270,-50.0625,-96.625,-110.875,0.07128906,0.1762695,1.197754,0.2441406,-0.355957,-0.2436523
1271,-38,-60.875,-155.1875,-0.5571289,-0.02441406,1.478027,0.2441406,-0.355957,-0.2436523
1272,-20.5,-0.9375,-142.5625,-0.01171875,-0.08251953,0.7353516,0.2231445,-0.3457031,-0.2597656
1273,24.6875,-31.875,-114.375,-0.6367188,-0.2021484,0.6958008,0.2231445,-0.3457031,-0.2597656
1274,23.25,-51.9375,31.3125,-0.3862305,0.3652344,1.106934,0.2202148,-0.3378906,-0.2436523
1275,-69.5625,31.25,73.375,-0.5610352,-0.2099609,1.150391,0.2255859,-0.3505859,-0.246582
1276,-87.0625,59.125,31.75,0.234375,0.203125,1.185547,0.2255859,-0.3505859,-0.246582
1277,-48.375,5.4375,18.6875,0.1904297,0.1953125,1.553223,0.230957,-0.3330078,-0.2568359
1278,14.125,-48.875,-10.1875,0.1147461,0.3110352,1.375488,0.2338867,-0.3251953,-0.2490234
1279,-10.5,-43.5,28.875,0.2822266,0.3691406,1.422852,0.2338867,-0.3251953,-0.2490234
1280,-9.4375,-34.875,39.0625,-0.1074219,0.2685547,1.470215,0.2255859,-0.3330078,-0.246582
1281,-39.1875,30.375,30.375,0.2460938,0.6474609,1.39502,0.2255859,-0.3330078,-0.246582
1282,-36.0625,43.125,32.4375,-0.08740234,0.07568359,1.39502,0.2285156,-0.3276367,-0.2490234
1284,-34.625,58.9375,52.1875,-0.1035156,0.2573242,1.043457,0.2231445,-0.3300781,-0.2387695
1285,-40.9375,71.75,58.5,-0.07568359,0.1796875,1.106934,0.2231445,-0.3300781,-0.2387695
1286,-38.8125,79.375,40.9375,-0.2788086,0.08349609,0.8852539,0.2441406,-0.3251953,-0.2490234
1287,-48.0625,90,8.75,-0.1196289,0.1142578,0.9052734,0.2441406,-0.3251953,-0.2490234
1288,-43.5625,83.6875,-9.25,-0.3027344,-0.01660156,0.7192383,0.2602539,-0.3251953,-0.2436523
1289,-42.3125,78,3.25,-0.190918,0.1450195,0.8222656,0.2548828,-0.3149414,-0.2436523
1290,-26.625,58.125,2.75,-0.1152344,0.1762695,0.7905273,0.2548828,-0.3149414,-0.2436523
1291,-23.625,55.375,4.875,-0.2270508,0.1489258,0.8930664,0.265625,-0.3125,-0.2412109
1292,-28.8125,97.4375,-28.8125,-0.2983398,0.137207,0.8696289,0.2709961,-0.3046875,-0.2333984
1293,-64.0625,151.125,-57.5,-0.4140625,0.07177734,0.65625,0.2709961,-0.3046875,-0.2333984
1294,-69.875,177.375,-69.1875,0.02734375,0.2802734,0.6601563,0.2871094,-0.2993164,-0.2358398
1295,-53.3125,172.8125,-68.375,-0.02001953,0.06396484,0.7314453,0.2871094,-0.2993164,-0.2358398
1296,-51,230.4375,-107.375,-0.1513672,0.01757813,0.4545898,0.2978516,-0.2944336,-0.2148438
1297,-15.5,102.0625,-74.5,-0.3701172,-0.01660156,1.043457,0.3242188,-0.2866211,-0.2255859
1298,-4.75,-64.625,-21.4375,-0.3383789,0.4887695,1.276855,0.3242188,-0.2866211,-0.2255859
1299,47.625,-232.9375,61.125,0.5605469,0.8520508,2.102539,0.3164063,-0.2817383,-0.2226563
1300,-0.0625,-91.0625,24.625,-0.5849609,-0.1054688,1.122559,0.3164063,-0.2817383,-0.2226563
1301,-25.5625,12.375,-25.5,0.2939453,0.4887695,1.782715,0.2924805,-0.2919922,-0.2226563
1302,-94.5,122.625,-55.1875,-0.1513672,0.4077148,1.39502,0.2924805,-0.2890625,-0.2226563
1303,-122.0625,137.8125,-75.5,0.05126953,0.4814453,0.9804688,0.2924805,-0.2890625,-0.2226563
1304,-159.5625,131.8125,-74.0625,0.05908203,0.3227539,1.296387,0.3085938,-0.2739258,-0.2148438
1305,-178.4375,70.75,-34.875,0.2978516,0.3652344,1.193848,0.3349609,-0.2485352,-0.2045898
1306,-190.6875,-5.6875,-30.1875,-0.06787109,0.4233398,1.11084,0.3349609,-0.2485352,-0.2045898
1307,-212.75,-43.8125,-39.0625,-0.1992188,0.1835938,1.035645,0.3139648,-0.2280273,-0.2016602
1308,-224.375,-43.4375,-32,-0.1474609,-0.004882813,1.027832,0.3139648,-0.2280273,-0.2016602
1309,-198.3125,-36.375,9.75,-0.2109375,-0.144043,1.011719,0.3164063,-0.2050781,-0.1962891
1310,-168.0625,-63.75,30.3125,-0.01611328,-0.0009765625,1.027832,0.3188477,-0.1870117,-0.1806641
1311,-152.0625,-82.125,64.0625,-0.3027344,-0.1289063,1.126465,0.3188477,-0.1870117,-0.1806641
1312,-137.1875,-105.0625,121.75,-0.2270508,-0.1289063,1.166016,0.3032227,-0.1743164,-0.1782227
1313,-117.125,-92.1875,129.4375,-0.07177734,-0.2407227,1.296387,0.3032227,-0.1743164,-0.1782227
1314,-95.1875,-65,94.5,-0.1474609,-0.3413086,1.245117,0.3085938,-0.1586914,-0.1806641
1315,-75.375,-23.3125,73.25,-0.3740234,-0.3452148,1.249023,0.3085938,-0.1616211,-0.1704102
1316,-68.0625,18.25,68,-0.3383789,-0.1904297,1.122559,0.3085938,-0.1616211,-0.1704102
1317,-53.875,45.125,62.125,-0.5693359,-0.175293,1.071289,0.3139648,-0.1513672,-0.1674805
1318,-25,36.4375,76.125,-0.3779297,-0.2216797,0.7788086,0.3188477,-0.1459961,-0.1572266
1319,-9.125,34.25,89.0625,-0.6367188,-0.09375,0.6757813,0.3188477,-0.1459961,-0.1572266
1320,-11.0625,46.0625,79.3125,-0.2070313,-0.1635742,0.8061523,0.3217773,-0.1513672,-0.1650391
1321,-0.5,53.9375,69.375,-0.3862305,-0.1674805,0.8657227,0.3217773,-0.1513672,-0.1650391
1322,23.25,48.0625,72.9375,-0.2983398,-0.1210938,0.644043,0.3325195,-0.1538086,-0.159668
1323,50.5625,38,91.9375,-0.09570313,-0.05517578,0.6601563,0.3349609,-0.1665039,-0.159668
1324,71.3125,29.25,112,-0.2070313,0.02539063,0.7353516,0.3349609,-0.1665039,-0.159668
1325,81.25,9.1875,108.875,-0.1948242,0.02148438,0.9130859,0.3486328,-0.1743164,-0.1489258
1326,105.375,-28.625,87.5625,0.09082031,-0.144043,2.529785,0.3486328,-0.1743164,-0.1489258
1327,160.375,-235.9375,128.6875,-0.6567383,0.546875,1.122559,0.3564453,-0.1845703,-0.1572266
1328,69.8125,-84.125,151.375,0.07910156,0.5043945,1.015625,0.3486328,-0.1918945,-0.1831055
1329,87.8125,-71.25,124.75,-0.1870117,0.2109375,1.335938,0.3486328,-0.1918945,-0.1831055
1330,92.375,-67.9375,87.8125,0.2421875,0.4116211,1.438965,0.3510742,-0.2304688,-0.1860352
1331,75.25,-23.125,65.9375,0.1943359,0.4580078,1.237305,0.3378906,-0.2353516,-0.1860352
1332,87.4375,-34.375,92.9375,0.09082031,0.3652344,1.154297,0.3378906,-0.2353516,-0.1860352
1333,96.6875,-33.875,105.75,0.1904297,0.2724609,1.193848,0.340332,-0.2304688,-0.1938477
1334,104.0625,-16.75,97.6875,0.2583008,0.2919922,1.094727,0.340332,-0.2304688,-0.1938477
1335,121.4375,-6.0625,95.8125,0.262207,0.3076172,0.9682617,0.3432617,-0.2612305,-0.1962891
1336,135.6875,2,97.9375,-0.09960938,0.2880859,0.8261719,0.3540039,-0.2841797,-0.2094727
1337,128.5,-6,88.875,-0.2509766,0.2495117,1.086914,0.3540039,-0.2841797,-0.2094727
1338,111.0625,-32.4375,61.75,0.015625,0.3691406,1.205566,0.3510742,-0.2944336,-0.2124023
1339,99.4375,-58.6875,38.8125,0.07128906,0.4350586,1.063477,0.3510742,-0.2944336,-0.2124023
1340,88.125,-75.75,33.5625,-0.1035156,0.3613281,0.9882813,0.340332,-0.3095703,-0.2177734
1341,74.5625,-85,23.6875,-0.08349609,0.4077148,0.9960938,0.3432617,-0.3276367,-0.2226563
1342,35.9375,-94.3125,-7.125,-0.1430664,0.4619141,0.7709961,0.3432617,-0.3276367,-0.2226563
1343,66.6875,-175.1875,-87.5625,0.05908203,0.02929688,1.426758,0.3271484,-0.3300781,-0.2280273
1344,20.875,-160.5625,-100.5,-0.230957,0.2299805,0.956543,0.3056641,-0.3276367,-0.2333984
1345,18.25,-165.5,-71.75,-0.6088867,-0.109375,1.221191,0.3056641,-0.3276367,-0.2333984
1346,-2.6875,-128.25,-48.375,-0.5571289,-0.09765625,1.256836,0.2924805,-0.3227539,-0.2387695
1347,-1.6875,-71.75,-47.625,-0.4814453,-0.09765625,1.288574,0.2924805,-0.3227539,-0.2387695
1349,8.375,-46,-63.3125,-0.4697266,-0.2675781,1.181641,0.2841797,-0.3149414,-0.246582
1350,18.75,-25.8125,-84.4375,-0.5610352,-0.1943359,1.391113,0.2739258,-0.3300781,-0.2412109
1351,8.5,-2.5,-92.625,-0.8081055,-0.3027344,1.237305,0.2739258,-0.3300781,-0.2412109
1352,10.25,11,-86.0625,-0.7402344,-0.3681641,1.474121,0.2685547,-0.3125,-0.2412109
1353,45.125,12.9375,-52.0625,-0.4140625,-0.08251953,1.34375,0.2685547,-0.3125,-0.2412109
1354,56.375,23.875,-33.625,-0.175293,0.1220703,1.355957,0.2763672,-0.3149414,-0.2412109
1355,57.625,31.875,-16.75,-0.1313477,0.152832,1.328125,0.2739258,-0.3251953,-0.2387695
1356,55.6875,42,-1.25,-0.1948242,0.3076172,1.134277,0.2739258,-0.3251953,-0.2387695
1357,36.9375,49.6875,44.75,-0.07958984,0.3188477,0.9487305,0.2709961,-0.3276367,-0.2358398
1358,16.4375,60.0625,93.125,0.1030273,0.3613281,1.059082,0.2709961,-0.3354492,-0.2358398
1359,2.9375,73.125,116.125,0.1665039,0.3305664,1.079102,0.2709961,-0.3354492,-0.2358398
1360,-6.1875,81.5,125.375,0.1787109,0.3110352,1.11084,0.2871094,-0.3457031,-0.2333984
1361,-8.375,85.0625,123.375,0.2543945,0.4194336,1.067383,0.2871094,-0.3457031,-0.2333984
1362,5.6875,66.0625,121.625,0.2939453,0.3691406,1.150391,0.300293,-0.3481445,-0.2412109
1363,-5.8125,81.4375,121.8125,0.2265625,0.4272461,1.162109,0.3164063,-0.3432617,-0.2387695
1364,-25.25,95.5,103.9375,0.01123047,0.3691406,1.126465,0.3164063,-0.3432617,-0.2387695
1365,-23.625,91.125,91.875,-0.04785156,0.3305664,1.150391,0.3139648,-0.3505859,-0.230957
1366,-17,83.125,72.5625,-0.07958984,0.3652344,1.071289,0.3139648,-0.3505859,-0.230957
1367,-10.5625,75.4375,47.875,-0.09960938,0.2998047,1.102539,0.3349609,-0.3583984,-0.2255859
1368,-6.125,70.8125,26.375,-0.1713867,0.3149414,1.122559,0.3432617,-0.3583984,-0.2333984
1369,-2.875,63.375,7.5625,-0.2270508,0.3540039,1.071289,0.3432617,-0.3583984,-0.2333984
1370,4.0625,57.5625,-12.4375,-0.2827148,0.3266602,1.154297,0.3540039,-0.3530273,-0.2280273
1371,21.1875,46.4375,-27.5,-0.3105469,0.2338867,1.166016,0.3486328,-0.355957,-0.2226563
1372,41.375,28.875,-44.0625,-0.2788086,0.2841797,1.134277,0.3486328,-0.355957,-0.2226563
1373,61.3125,12.375,-53.25,-0.3066406,0.2070313,1.122559,0.3588867,-0.3530273,-0.2177734
1374,66.125,-5.1875,-67.25,-0.421875,0.253418,0.9960938,0.3588867,-0.3530273,-0.2177734
1375,71.375,-30.3125,-76.6875,-0.4619141,0.21875,0.9248047,0.3588867,-0.3583984,-0.2177734
1376,50.3125,-86.875,-40.625,0.05517578,-1.024902,0.9882813,0.3564453,-0.3710938,-0.2226563
1377,11.375,-78.9375,18.25,-0.1669922,-0.0009765625,0.7431641,0.3564453,-0.3710938,-0.2226563
1378,-10.1875,-123.625,22.0625,-0.2666016,0.4233398,0.6835938,0.3540039,-0.3735352,-0.2255859
1379,46.25,-161.25,7.6875,-0.2905273,0.6240234,1.162109,0.3540039,-0.3735352,-0.2255859
1380,32.625,-138.625,-10.125,0.1386719,0.4926758,1.086914,0.3242188,-0.3583984,-0.2226563
1381,-41.125,-119.25,31.5,0.2504883,-0.0009765625,0.328125,0.3032227,-0.3710938,-0.2333984
1382,-211.375,-213.125,111.6875,0.4013672,0.3188477,-1.730957,0.3032227,-0.3710938,-0.2333984
1383,-503.5625,-169.0625,108.9375,0.7954102,0.7866211,2.328125,0.2924805,-0.3608398,-0.2387695
1384,-318.9375,25.4375,94.625,0.1191406,0.04101563,3.537598,0.2978516,-0.3198242,-0.230957
1385,8.1875,3.3125,-25.8125,0.04736328,0.6049805,1.426758,0.2978516,-0.3198242,-0.230957
1386,-23,0.5625,-84.3125,-0.07568359,0.09863281,0.7944336,0.2895508,-0.3071289,-0.2412109
1387,-94.125,20.8125,-18.9375,-0.02001953,-0.1210938,0.8735352,0.2895508,-0.3071289,-0.2412109
1388,-127.1875,25.25,30.8125,0.2143555,0.1411133,1.023926,0.2841797,-0.3046875,-0.2280273
1389,-128.1875,30.8125,28.375,0.2460938,0.152832,1.169922,0.2978516,-0.2890625,-0.2280273
1390,-116.8125,31.5,21.8125,0.1108398,0.1259766,1.075195,0.2978516,-0.2890625,-0.2280273
1391,-114.3125,31.1875,26.375,0.05517578,0.1259766,1.075195,0.3032227,-0.2763672,-0.2177734
1392,-118.5,33.375,35.25,0.03955078,0.1762695,1.079102,0.3032227,-0.2763672,-0.2177734
1393,-118.625,39.8125,47.875,0.06738281,0.08740234,1.122559,0.300293,-0.269043,-0.2202148
1394,-112,36.4375,49.25,0.1347656,0.152832,1.09082,0.3056641,-0.2636719,-0.2148438
1395,-79.8125,25.9375,33.1875,0.04345703,0.01367188,1.217285,0.3056641,-0.2636719,-0.2148438
1396,-52.6875,22.625,29.25,-0.01171875,-0.06689453,1.197754,0.3139648,-0.2382813,-0.2148438
1397,-35.6875,17.5,33.3125,-0.06787109,-0.05908203,1.154297,0.3056641,-0.2407227,-0.2045898
1398,-26.625,13.6875,36.75,-0.09570313,-0.01660156,1.158203,0.3056641,-0.2407227,-0.2045898
1399,-23.1875,12.25,36.5625,-0.1035156,0.04833984,1.177734,0.3139648,-0.2407227,-0.2045898
1400,-24.375,11.6875,36.625,-0.07568359,0.04101563,1.177734,0.3139648,-0.2407227,-0.2045898
1401,-30.375,18,50.5625,-0.07958984,-0.1713867,1.169922,0.3188477,-0.2304688,-0.2070313
1402,-41.1875,25.75,77.75,-0.06347656,-0.2714844,1.083008,0.3271484,-0.2382813,-0.1962891
1403,-38.0625,23.9375,85.25,-0.01171875,-0.175293,1.122559,0.3271484,-0.2382813,-0.1962891
1404,-17.5625,22.25,71.5,-0.02392578,-0.1328125,1.197754,0.3325195,-0.2382813,-0.2070313
1405,-42.25,43.9375,62.875,-0.4257813,-0.2910156,0.02783203,0.3325195,-0.2382813,-0.2070313
1406,-52.6875,-33.75,86.375,0.1108398,-0.4804688,1.019531,0.340332,-0.2329102,-0.1992188
1407,24.3125,4.5625,50.4375,0.3579102,0.137207,1.521973,0.3271484,-0.2329102,-0.1938477
1408,23.25,12.5,1,-0.2587891,0.2651367,1.154297,0.3271484,-0.2329102,-0.1938477
1409,29.3125,16.25,-3.3125,-0.4140625,0.4775391,1.351563,0.340332,-0.2329102,-0.2016602
1410,8.875,36.5,10.3125,0.02734375,0.01367188,1.260742,0.3457031,-0.2456055,-0.2016602
1411,-68.375,59.3125,196.75,0.3818359,-0.4453125,0.8891602,0.3457031,-0.2456055,-0.2016602
1412,-61.25,36.125,179.3125,0.2460938,0.4077148,1.126465,0.3510742,-0.2329102,-0.1884766
1414,-39.625,29.8125,132.0625,-0.3144531,-0.1362305,1.086914,0.3510742,-0.2329102,-0.1884766
1415,-45.1875,50.25,126.75,-0.2587891,-0.04394531,1.320313,0.3564453,-0.2280273,-0.1860352
1416,-46.3125,50.75,126.9375,-0.1948242,0.06396484,1.079102,0.3642578,-0.2431641,-0.1806641
1417,-33.375,39.5,106.3125,-0.2744141,-0.09765625,1.158203,0.3642578,-0.2431641,-0.1806641
1418,-10.4375,30.5,79.875,-0.2705078,-0.03613281,1.114746,0.3725586,-0.2456055,-0.1914063
1419,5,24.6875,60.25,-0.3500977,0.01757813,1.138184,0.3725586,-0.2456055,-0.1914063
1420,12.125,19.125,48.4375,-0.4736328,-0.0009765625,1.079102,0.3857422,-0.2509766,-0.1860352
1421,10.1875,12.9375,41.9375,-0.3701172,0.01757813,1.146484,0.3886719,-0.2509766,-0.1806641
1422,7.5625,9.75,41.1875,-0.3662109,0.05615234,1.126465,0.3886719,-0.2509766,-0.1806641
1423,9.8125,5.1875,51.875,-0.175293,0.009765625,1.3125,0.394043,-0.253418,-0.1782227
1424,8.8125,-3,48.9375,-0.3540039,-0.1289063,1.217285,0.394043,-0.253418,-0.1806641
1425,16,-11.0625,48.4375,-0.3027344,-0.1401367,1.249023,0.394043,-0.253418,-0.1806641
1426,26.4375,-15.75,49.625,-0.09130859,-0.05126953,1.185547,0.394043,-0.2636719,-0.1860352
1427,31.8125,-15,39.5,-0.04003906,-0.06689453,1.05127,0.394043,-0.2636719,-0.1860352
1428,52.6875,-44.4375,-49.0625,0.03955078,0.4155273,1.391113,0.3964844,-0.2817383,-0.1831055
1429,58.375,-32.6875,-26.5625,-0.2226563,-0.2329102,1.166016,0.3886719,-0.269043,-0.1884766
1430,74,-33.4375,-30.875,-0.07958984,0.06787109,1.205566,0.3886719,-0.269043,-0.1884766
1431,84.6875,-30.0625,-47.75,-0.04394531,-0.03222656,1.256836,0.3911133,-0.2739258,-0.1938477
1432,83,-23.8125,-56.5,0.003417969,-0.1054688,1.3125,0.3911133,-0.2739258,-0.1938477
1433,79.6875,-27.375,-65.4375,-0.1430664,-0.1557617,1.308105,0.3779297,-0.2817383,-0.2016602
1434,76.3125,-24.625,-60,-0.1630859,-0.07470703,1.126465,0.3779297,-0.2919922,-0.2148438
1435,68.9375,-24.3125,-36.4375,-0.3305664,0.01757813,1.130371,0.3779297,-0.2919922,-0.2148438
1436,70.8125,-20.8125,-9,-0.5493164,-0.08251953,1.094727,0.3696289,-0.2890625,-0.1860352
1437,75.875,-20.75,18.25,-0.4140625,-0.07861328,1.169922,0.3696289,-0.2944336,-0.2177734
1438,70.625,-13.9375,20.5,-0.2744141,0.4038086,1.039551,0.3696289,-0.2944336,-0.2177734
1439,76.375,-20.875,-11.8125,-0.3701172,-0.5883789,1.339844,0.3618164,-0.3046875,-0.2094727
1440,73.375,-8.25,-8.6875,-0.175293,-0.2368164,1.067383,0.3618164,-0.3046875,-0.2094727
1441,64.9375,-5.375,-13.1875,0.07910156,0.1914063,0.9130859,0.3588867,-0.3046875,-0.2177734
1442,72.1875,-33.125,-66.4375,-0.07177734,0.02148438,1.209473,0.3540039,-0.3173828,-0.2094727
1443,40.75,-25.875,-70.8125,-0.0078125,0.3149414,1.122559,0.3540039,-0.3173828,-0.2094727
1444,18.875,-18.9375,-62.0625,0.09082031,0.08349609,1.154297,0.3588867,-0.3149414,-0.2148438
1445,-2.4375,-21.0625,-68.625,0.07128906,0.137207,1.114746,0.3588867,-0.3149414,-0.2148438
1446,-16.6875,-20.9375,-67.9375,0.05126953,0.1333008,1.055176,0.3588867,-0.3149414,-0.2094727
1447,-27.3125,-19.1875,-71.125,0.08300781,0.09863281,1.122559,0.3540039,-0.3071289,-0.2226563
1448,-33.375,-14.1875,-66.1875,0.07519531,0.1259766,1.09082,0.3540039,-0.3071289,-0.2226563
1449,-42.5625,-8.4375,-59.625,0.02734375,0.09082031,1.114746,0.3510742,-0.3125,-0.2177734
1450,-49.5,-4.125,-55.4375,-0.01611328,0.005859375,1.083008,0.3457031,-0.2993164,-0.2094727
1451,-50.5625,-0.125,-48,-0.09960938,-0.04394531,1.086914,0.3457031,-0.2993164,-0.2094727
1452,-52.25,5.0625,-38.3125,-0.1196289,-0.01660156,1.035645,0.3510742,-0.2993164,-0.2148438
1453,-50.375,6.1875,-36.25,-0.07958984,-0.0009765625,1.059082,0.3510742,-0.2993164,-0.2148438
1454,-36.5,-1.875,-41.5625,-0.09570313,0.04443359,1.134277,0.3295898,-0.2890625,-0.2148438
1455,-37.5625,5.5625,-45.25,-0.05566406,0.06787109,1.138184,0.340332,-0.2714844,-0.2177734
1456,-33.3125,6.5,-47.75,-0.02392578,0.07568359,1.138184,0.340332,-0.2714844,-0.2177734
1457,-23.875,5.0625,-41.1875,0,0.02929688,1.14209,0.3457031,-0.269043,-0.2148438
1458,-13.875,6.5625,-30.3125,0.04736328,-0.02441406,1.102539,0.3457031,-0.269043,-0.2148438
1459,-5.4375,5.0625,-24.3125,0.09082031,-0.03222656,1.102539,0.3349609,-0.2714844,-0.2094727
1460,6.0625,2.75,-23.4375,0.09912109,-0.07861328,1.146484,0.3378906,-0.2661133,-0.2045898
1461,18.6875,0.75,-20.6875,0.07910156,-0.02832031,1.169922,0.3378906,-0.2661133,-0.2045898
1462,28.6875,-0.0625,-24.9375,-0.00390625,0.009765625,1.233398,0.340332,-0.2739258,-0.2177734
1463,32.5,-1.125,-25.375,-0.04003906,0.07958984,1.138184,0.340332,-0.2739258,-0.2177734
