Packet number,Gyroscope X (deg/s),Gyroscope Y (deg/s),Gyroscope Z (deg/s),Accelerometer X (g),Accelerometer Y (g),Accelerometer Z (g),Magnetometer X (G),Magnetometer Y (G),Magnetometer Z (G)
114,-19.6875,-9.6875,-13.625,-0.2983398,-0.06689453,1.011719,0.2685547,-0.2280273,-0.2436523
115,-16.5625,3.75,-19.875,-0.3422852,-0.09765625,1.09082,0.2709961,-0.2050781,-0.2387695
116,-12.125,-4,-17.3125,-0.3740234,-0.109375,1.05127,0.2709961,-0.2050781,-0.2387695
117,-9.3125,-13.6875,-14.25,-0.3461914,-0.1015625,1.043457,0.2548828,-0.199707,-0.2412109
118,-7.25,-18.5,-9.1875,-0.2983398,-0.07470703,1.083008,0.2548828,-0.199707,-0.2412109
119,-8,-15.5625,-1.375,-0.3183594,-0.1015625,1.138184,0.2578125,-0.1972656,-0.2358398
120,-9.8125,-5.25,6.9375,-0.2983398,-0.1015625,1.154297,0.2578125,-0.1918945,-0.2358398
121,-13.25,4.5,14.1875,-0.2944336,-0.09765625,1.138184,0.2578125,-0.1918945,-0.2358398
122,66.0625,6.0625,85.4375,-0.421875,-0.2832031,1.644043,0.2470703,-0.199707,-0.230957
123,50.1875,17.5625,60.1875,-0.4814453,0.04443359,1.035645,0.265625,-0.2050781,-0.2358398
124,-11.1875,6.125,51.1875,-0.3901367,-0.04003906,0.8774414,0.265625,-0.2050781,-0.2358398
125,-45.3125,-10.9375,21.0625,-0.3740234,0.1489258,0.8579102,0.2602539,-0.2124023,-0.2358398
126,-35.4375,-19,33.0625,-0.1870117,-0.2563477,1.193848,0.2602539,-0.2124023,-0.2358398
127,-15.0625,-13.25,38.1875,-0.203125,-0.05126953,1.158203,0.2631836,-0.199707,-0.2333984
128,-16.375,-11.4375,35.4375,-0.21875,-0.0009765625,1.197754,0.2685547,-0.199707,-0.2333984
129,-13.875,-13.25,28.0625,-0.1948242,-0.05908203,1.134277,0.2685547,-0.199707,-0.2333984
130,-13.3125,-16.375,29.9375,-0.203125,-0.125,1.130371,0.265625,-0.1948242,-0.2412109
131,-7.6875,-17.4375,32.875,-0.21875,-0.1054688,1.094727,0.265625,-0.1948242,-0.2412109
132,-4.9375,-15.875,33.0625,-0.1870117,-0.04736328,1.158203,0.2685547,-0.1894531,-0.230957
133,-9,-9.625,32.375,-0.1870117,-0.02050781,1.11084,0.2739258,-0.199707,-0.2333984
134,-13.625,-3.25,31.6875,-0.1992188,-0.004882813,1.05127,0.2739258,-0.199707,-0.2333984
135,-19.5625,1.125,32.5,-0.2387695,-0.05908203,1.071289,0.2578125,-0.1948242,-0.2358398
136,-26.3125,4.8125,36.8125,-0.246582,-0.07080078,1.083008,0.2685547,-0.1870117,-0.2255859
137,-27.25,7,41.8125,-0.3305664,-0.1171875,1.05127,0.2685547,-0.1870117,-0.2255859
138,-24.625,3.8125,44.3125,-0.3979492,-0.1328125,1.05127,0.265625,-0.1948242,-0.2358398
139,-24.8125,-5.5,48.5625,-0.3862305,-0.175293,1.015625,0.265625,-0.1948242,-0.2358398
140,-23.5,-16.1875,50.8125,-0.3662109,-0.1635742,1.015625,0.2817383,-0.1918945,-0.2333984
141,-22.75,-23.125,50.375,-0.3066406,-0.1362305,1.067383,0.2709961,-0.1894531,-0.2226563
142,-21.5625,-26,48.125,-0.2548828,-0.07470703,1.063477,0.2709961,-0.1894531,-0.2226563
143,-18,-28.875,44.0625,-0.21875,-0.09765625,1.079102,0.2685547,-0.1948242,-0.230957
144,-11,-31.5625,40.375,-0.1669922,-0.05517578,1.023926,0.2685547,-0.1948242,-0.230957
145,-12.5,-33.375,35.5,-0.1313477,-0.02832031,1.035645,0.2817383,-0.1948242,-0.2280273
146,-12.8125,-34.8125,29.25,-0.1352539,-0.02832031,1.059082,0.265625,-0.1918945,-0.230957
147,-10.6875,-39.0625,21.1875,-0.09960938,0.005859375,1.094727,0.265625,-0.1918945,-0.230957
148,-10.375,-33.875,6.3125,0.05908203,0.1875,1.25293,0.2709961,-0.1918945,-0.2333984
149,-14.875,-22.625,-1.875,-0.04785156,0.03320313,1.083008,0.2685547,-0.1767578,-0.230957
150,-13.875,-12.6875,-12.875,-0.07958984,0.06005859,1.083008,0.2685547,-0.1767578,-0.230957
151,-16.375,-7.6875,-19,-0.1235352,-0.03613281,1.075195,0.265625,-0.1767578,-0.2387695
152,-18.625,-4.625,-19.625,-0.3105469,-0.109375,1.031738,0.265625,-0.1767578,-0.2387695
153,-17.0625,-6.6875,-16.9375,-0.3823242,-0.1787109,0.9960938,0.2685547,-0.1845703,-0.2255859
154,-19,-14.9375,-9.5625,-0.4458008,-0.2216797,0.9487305,0.265625,-0.1816406,-0.2280273
155,-20.5625,-23.75,0,-0.4296875,-0.2368164,0.9882813,0.265625,-0.1816406,-0.2280273
156,-19.0625,-31.125,9.3125,-0.3583984,-0.2216797,1.031738,0.2548828,-0.1791992,-0.2280273
157,-16.6875,-34.4375,14.125,-0.2509766,-0.1015625,1.063477,0.2548828,-0.1791992,-0.2280273
158,-17.25,-33.25,15,-0.1948242,-0.09375,1.075195,0.2602539,-0.1845703,-0.230957
159,-17.125,-31.4375,12.75,-0.1831055,-0.03222656,1.09082,0.2524414,-0.1791992,-0.230957
160,-14.1875,-31,7.6875,-0.1591797,-0.02441406,1.118652,0.2524414,-0.1791992,-0.230957
161,-8.75,-31.125,2.4375,-0.1630859,-0.04003906,1.122559,0.230957,-0.1767578,-0.2226563
162,-3.8125,-32.25,-1.125,-0.2070313,-0.09375,1.086914,0.2495117,-0.1640625,-0.2358398
163,0,-44.25,-1.4375,-0.230957,-0.144043,1.122559,0.2495117,-0.1640625,-0.2358398
164,2.625,-50.0625,4.3125,-0.2348633,-0.1865234,1.225098,0.2441406,-0.1743164,-0.230957
165,5.1875,-43.1875,12.0625,-0.2788086,-0.2407227,1.324219,0.2441406,-0.1743164,-0.230957
166,6,-32.6875,17.6875,-0.2270508,-0.1401367,1.245117,0.2338867,-0.1743164,-0.2280273
167,1.0625,-22.5,18.625,-0.1552734,-0.05126953,1.193848,0.2441406,-0.1743164,-0.2255859
168,-5.1875,-17.4375,14.1875,-0.203125,0.005859375,1.047363,0.2441406,-0.1743164,-0.2255859
169,-7.5,-17,9.5,-0.2148438,0.03710938,1.015625,0.2363281,-0.1713867,-0.2333984
170,-4.625,-15.1875,5.0625,-0.2148438,-0.0009765625,0.9760742,0.2363281,-0.1713867,-0.2333984
171,-3.1875,-19.75,3.1875,-0.2666016,-0.02441406,0.8735352,0.2285156,-0.1743164,-0.2255859
172,-5.125,-32.75,0.75,-0.2548828,-0.01660156,0.8813477,0.230957,-0.1767578,-0.2387695
173,-8.625,-44.9375,-1.6875,-0.1992188,-0.0009765625,0.9960938,0.230957,-0.1767578,-0.2387695
174,-13.1875,-44.25,-3.3125,-0.190918,-0.02050781,1.09082,0.2285156,-0.1845703,-0.2333984
175,-15.25,-35.9375,-4.1875,-0.1352539,-0.04394531,1.359863,0.2231445,-0.1713867,-0.2255859
176,15.3125,-25.25,1.125,-0.1513672,-0.1518555,1.177734,0.2231445,-0.1713867,-0.2255859
177,25.5625,-12.3125,4.5,-0.08349609,-0.0009765625,1.233398,0.2094727,-0.1767578,-0.2280273
179,33,-10.625,13.375,-0.06347656,-0.07470703,0.8735352,0.2094727,-0.1767578,-0.2280273
180,34.125,7.875,2.1875,-0.1074219,0.02929688,1.079102,0.2070313,-0.1767578,-0.2255859
181,30.75,-24.3125,-7,-0.1274414,0.1875,0.9130859,0.2177734,-0.1743164,-0.2387695
182,29.5625,-41.6875,-21.9375,-0.1235352,0.05615234,0.9365234,0.2177734,-0.1743164,-0.2387695
183,39.125,-57.0625,-28.3125,-0.05957031,0.009765625,1.106934,0.2070313,-0.1845703,-0.2333984
184,44.375,-63.1875,-29.625,-0.02392578,0.005859375,1.126465,0.2070313,-0.1845703,-0.2333984
185,24.125,-66.875,-27.5,-0.03564453,0.01367188,1.205566,0.2070313,-0.1870117,-0.2358398
186,-8,-65.625,-21.875,-0.03173828,-0.05908203,1.300293,0.1987305,-0.1894531,-0.246582
187,-30.3125,-60.6875,-12.6875,-0.05566406,-0.1210938,1.296387,0.1987305,-0.1894531,-0.246582
188,-43.5,-56.125,-5.1875,-0.07958984,-0.03613281,1.225098,0.1801758,-0.1791992,-0.2387695
189,-51.6875,-56.3125,-1.75,-0.01611328,-0.06689453,1.162109,0.1855469,-0.1870117,-0.2358398
190,-50,-51.375,1.875,0.03125,-0.08251953,1.221191,0.1855469,-0.1870117,-0.2358398
191,-36.625,-39,5.875,0.04345703,-0.05517578,1.272949,0.1694336,-0.1816406,-0.2333984
192,-27.8125,-21.875,9.6875,0.03955078,-0.05517578,1.197754,0.1694336,-0.1816406,-0.2333984
193,-31.3125,-7.625,8.75,0.08691406,0.1064453,1.185547,0.1694336,-0.1689453,-0.2333984
194,-44.3125,6.375,-6.75,0.1943359,0.08349609,1.102539,0.1669922,-0.1665039,-0.2412109
195,-47.75,13.625,-19.5,0.2026367,0.09082031,1.169922,0.1669922,-0.1665039,-0.2412109
196,-47.75,13.875,-29.9375,0.1347656,-0.02832031,1.181641,0.1616211,-0.1640625,-0.2280273
197,-40.3125,6.75,-32,0.01123047,-0.1713867,1.25293,0.1616211,-0.1640625,-0.2280273
198,-31.6875,-1.125,-24.4375,-0.1391602,-0.2949219,1.264648,0.1669922,-0.15625,-0.2333984
199,-25.0625,-9.0625,-14.375,-0.1552734,-0.2675781,1.268555,0.1669922,-0.1586914,-0.2226563
200,-25.5,-12.4375,-4.3125,-0.1591797,-0.2177734,1.268555,0.1669922,-0.1586914,-0.2226563
201,-27.9375,-12.125,3.4375,-0.1274414,-0.1557617,1.213379,0.1669922,-0.1616211,-0.2280273
202,-28.125,-8.5,7.9375,-0.05957031,-0.08984375,1.138184,0.1694336,-0.1459961,-0.2280273
203,-28.5,-5.125,9.125,-0.03564453,-0.05126953,1.094727,0.1694336,-0.1459961,-0.2280273
204,-28.625,-2,7.25,-0.01611328,-0.0009765625,1.031738,0.1640625,-0.1459961,-0.2177734
205,-28.5,-1.0625,2.25,0.07519531,0.05224609,1.011719,0.1640625,-0.1459961,-0.2177734
206,-30.8125,0.9375,-5.1875,0.09912109,0.07177734,1,0.1669922,-0.1459961,-0.2226563
207,-28.0625,2.4375,-12.75,0.09082031,0.05224609,1.035645,0.1669922,-0.1435547,-0.2177734
208,-23.25,1.0625,-19,0.03955078,0.02148438,1.011719,0.1669922,-0.1435547,-0.2177734
209,-19.75,-6.625,-24.0625,0.01123047,0.01367188,0.9921875,0.1669922,-0.1279297,-0.2177734
210,-16.75,-17.4375,-26.375,-0.04785156,-0.02050781,1.027832,0.1669922,-0.1279297,-0.2177734
211,-18.4375,-25.125,-25.125,-0.1074219,-0.05517578,1.11084,0.15625,-0.1308594,-0.2070313
212,-20.625,-24.8125,-21.4375,-0.1713867,-0.109375,1.197754,0.1586914,-0.1279297,-0.2070313
213,-20.875,-15.4375,-16.875,-0.1630859,-0.09375,1.209473,0.1586914,-0.1279297,-0.2070313
214,-23.0625,-10.875,-13.4375,-0.1669922,-0.1289063,1.106934,0.1616211,-0.1279297,-0.2045898
215,-25.25,-9.625,-13.3125,-0.09570313,-0.09375,1.071289,0.1455078,-0.1308594,-0.2094727
216,-22.625,-8.3125,-14.75,-0.07958984,-0.109375,1.043457,0.1455078,-0.1308594,-0.2094727
217,-11.875,-8,-15.875,-0.08349609,-0.1362305,1.106934,0.1533203,-0.1230469,-0.2202148
218,-3.75,-13.4375,-19.375,-0.08349609,-0.1210938,1.079102,0.1533203,-0.1230469,-0.2202148
219,2.125,-21.25,-21.875,-0.08740234,-0.1826172,1.138184,0.1508789,-0.1230469,-0.2045898
220,10.875,-22.3125,-22.125,-0.05175781,-0.144043,1.260742,0.1376953,-0.1230469,-0.2177734
221,18.5625,-17.6875,-22.25,-0.04785156,-0.1674805,1.280762,0.1376953,-0.1230469,-0.2177734
222,27,-9.4375,-21.1875,-0.03173828,-0.2021484,1.332031,0.1401367,-0.1308594,-0.2255859
223,29.5,-6.5625,-19.5,-0.05566406,-0.1904297,1.276855,0.1401367,-0.1308594,-0.2255859
224,29.75,-7.25,-18.625,-0.03564453,-0.1674805,1.268555,0.1401367,-0.1308594,-0.2045898
225,28.0625,-13.625,-14.8125,-0.05957031,-0.1865234,1.260742,0.1269531,-0.1279297,-0.2226563
226,29.75,-16.0625,-13.5,-0.03173828,-0.1674805,1.225098,0.1269531,-0.1279297,-0.2226563
227,30,-22.25,-10,-0.02392578,-0.1713867,1.225098,0.1323242,-0.1279297,-0.2202148
228,32.6875,-25.875,-7.1875,-0.01611328,-0.1713867,1.245117,0.1269531,-0.1357422,-0.2202148
229,35.5,-27.25,0,-0.06787109,-0.1787109,1.209473,0.1269531,-0.1357422,-0.2202148
230,35.375,-30.375,12.25,-0.1152344,-0.1865234,1.237305,0.1323242,-0.1435547,-0.2226563
231,50.1875,-42.75,41.75,-0.3461914,-0.1713867,1.391113,0.1323242,-0.1435547,-0.2226563
232,18.75,-39.25,23.4375,-0.04394531,-0.144043,1.193848,0.1108398,-0.1435547,-0.2094727
233,1.3125,12,35.5625,0.09082031,-0.03222656,1.166016,0.121582,-0.1484375,-0.2255859
234,2.1875,31.9375,43.4375,0.1987305,-0.144043,1.075195,0.121582,-0.1484375,-0.2255859
235,-18.4375,30.625,46.875,0.2265625,-0.07470703,1.098633,0.1269531,-0.1538086,-0.2255859
236,-26.8125,21,45.125,0.1625977,-0.1054688,1.276855,0.1269531,-0.1538086,-0.2255859
237,-15.8125,14,44.75,0.1469727,-0.109375,1.241211,0.1347656,-0.1435547,-0.2333984
238,-11.4375,7,42.5,0.1469727,-0.09375,1.233398,0.1323242,-0.1484375,-0.2177734
239,-1.8125,8.3125,41.25,0.1547852,-0.1015625,1.237305,0.1323242,-0.1484375,-0.2177734
240,10.3125,17.6875,44.0625,0.1508789,-0.1171875,1.25293,0.1455078,-0.1513672,-0.2226563
241,26.0625,27.375,46.3125,0.1704102,-0.08984375,1.241211,0.1455078,-0.1459961,-0.2280273
242,38.4375,27.875,45.375,0.1147461,-0.07470703,1.229492,0.1455078,-0.1459961,-0.2280273
244,45.875,22.625,41.75,0.07128906,-0.02441406,1.245117,0.1455078,-0.1459961,-0.2280273
245,50.8125,16.625,39.5,-0.01171875,-0.004882813,1.25293,0.1455078,-0.1459961,-0.2280273
246,26.6875,25.3125,-7.3125,-0.421875,0.4077148,0.9091797,0.1508789,-0.1538086,-0.2226563
247,6.1875,19.5,-2.25,-0.2666016,-0.01660156,1.45459,0.1669922,-0.1538086,-0.2280273
248,-21.75,33.25,-0.75,-0.1152344,0.1142578,1.29248,0.1669922,-0.1538086,-0.2280273
249,-64.3125,38.875,-0.875,-0.1430664,0.04833984,1.359863,0.1669922,-0.1513672,-0.2255859
250,-75.8125,38.75,1.125,-0.08349609,0.07568359,1.320313,0.1669922,-0.1513672,-0.2255859
251,-65.1875,18.75,-5.1875,-0.02783203,0.09472656,1.181641,0.1723633,-0.1484375,-0.2177734
252,-61.125,2.625,-9.5625,-0.02001953,0.02539063,1.173828,0.1640625,-0.1381836,-0.2177734
253,-69.5,-1.6875,-9.375,-0.02783203,-0.004882813,1.098633,0.1640625,-0.1381836,-0.2177734
254,-78.5625,-5.6875,-10,-0.02001953,-0.03222656,1.059082,0.1669922,-0.1333008,-0.2177734
255,-76.1875,-4.125,-9.375,-0.0078125,-0.03613281,1.063477,0.1616211,-0.1254883,-0.2202148
256,-67.8125,2.6875,-8.75,-0.07958984,-0.05908203,1.015625,0.1616211,-0.1254883,-0.2202148
257,-62.375,7.875,-10.875,-0.09960938,-0.05908203,0.9365234,0.1640625,-0.1230469,-0.2124023
258,-55.125,10.4375,-14.4375,-0.1196289,-0.1054688,0.9326172,0.1640625,-0.1230469,-0.2124023
259,-44.25,11.6875,-17.75,-0.1235352,-0.1015625,0.8657227,0.1777344,-0.1025391,-0.2070313
260,-32.625,15.125,-21.375,-0.09960938,-0.09375,0.940918,0.1669922,-0.1049805,-0.2070313
261,-19.5,23.25,-23.875,-0.05957031,-0.1210938,1,0.1669922,-0.1049805,-0.2070313
262,-11.4375,31.375,-25.5,-0.09570313,-0.1210938,1.015625,0.1723633,-0.09765625,-0.2094727
263,-9.125,35.25,-26.8125,-0.06347656,-0.1132813,0.9882813,0.1723633,-0.09765625,-0.2094727
264,-5.4375,34.4375,-27.8125,-0.03564453,-0.09375,1.023926,0.1669922,-0.09472656,-0.2045898
265,-2.75,30.0625,-30.0625,-0.02783203,-0.08251953,1.043457,0.1669922,-0.1049805,-0.1860352
266,-4.25,23.625,-32.25,-0.04394531,-0.05126953,1.075195,0.1669922,-0.1049805,-0.1860352
267,-6.1875,16.5,-33.875,-0.03173828,-0.06689453,1.122559,0.1616211,-0.1000977,-0.1914063
268,-9.5625,11.4375,-34.25,-0.00390625,-0.07861328,1.118652,0.1669922,-0.08740234,-0.1938477
269,-16.3125,4.3125,-35.1875,-0.01611328,-0.08984375,1.09082,0.1669922,-0.08740234,-0.1938477
270,-22.9375,-4.9375,-37.4375,-0.01171875,-0.1132813,1.083008,0.1669922,-0.1025391,-0.1962891
271,-26.3125,-14.25,-40.25,-0.02392578,-0.08984375,1.094727,0.1669922,-0.1025391,-0.1962891
272,-28.25,-22.1875,-41.6875,0.003417969,-0.1015625,1.126465,0.1586914,-0.09765625,-0.1992188
273,-30.3125,-31.1875,-42.3125,0.04345703,-0.06689453,1.05127,0.1640625,-0.1049805,-0.1962891
274,-35,-40,-41.3125,0.03125,-0.08642578,1.079102,0.1640625,-0.1049805,-0.1962891
275,-33.8125,-38.25,-37.9375,0.06738281,-0.1132813,1.166016,0.1484375,-0.09765625,-0.2016602
276,-27.25,-27.875,-34.25,0.09082031,-0.1132813,1.158203,0.1484375,-0.09765625,-0.2016602
277,-26,-20,-32.375,0.06298828,-0.125,1.106934,0.1484375,-0.08447266,-0.1860352
278,-24.0625,-16.5,-32.8125,0.08691406,-0.1328125,1.134277,0.1323242,-0.09765625,-0.1884766
279,-17.6875,-14.1875,-35.25,0.05126953,-0.125,1.154297,0.1323242,-0.09765625,-0.1884766
280,-10.125,-10,-37.8125,0.06298828,-0.125,1.20166,0.1401367,-0.08447266,-0.1831055
281,-6.375,-3.375,-38.875,0.02734375,-0.159668,1.260742,0.1401367,-0.08447266,-0.1782227
282,-10.0625,1.6875,-39.375,0.06298828,-0.159668,1.241211,0.1401367,-0.08447266,-0.1782227
283,-17.1875,1.875,-40.3125,0.02734375,-0.125,1.272949,0.1347656,-0.08740234,-0.1806641
284,-21.8125,-0.75,-41.625,0.04345703,-0.1865234,1.249023,0.1347656,-0.08740234,-0.1806641
285,-28.125,-10.3125,-43.375,0.07128906,-0.1328125,1.217285,0.1293945,-0.08447266,-0.1884766
286,-36.875,-24.5625,-45.6875,0.1069336,-0.1635742,1.169922,0.1240234,-0.07958984,-0.1860352
287,-45.0625,-40.1875,-47.3125,0.1030273,-0.159668,1.166016,0.1240234,-0.07958984,-0.1860352
288,-49.9375,-48.8125,-47.25,0.1030273,-0.2021484,1.158203,0.1186523,-0.08203125,-0.1831055
289,-55.375,-50.4375,-46.6875,0.04736328,-0.2177734,1.154297,0.1186523,-0.08203125,-0.1831055
290,-58.25,-51.9375,-48.875,0.003417969,-0.1518555,1.11084,0.1108398,-0.06689453,-0.175293
291,-51.3125,-49.9375,-51.4375,0.04345703,-0.2021484,1.102539,0.1000977,-0.05126953,-0.175293
292,-42,-42.875,-53.5,0.02734375,-0.1982422,1.094727,0.1000977,-0.05126953,-0.175293
293,-36.625,-33.3125,-54.875,0.03955078,-0.2485352,1.098633,0.09228516,-0.05664063,-0.175293
294,-32.4375,-24.6875,-55.3125,0.05908203,-0.2792969,1.086914,0.08935547,-0.05371094,-0.1674805
295,-29.5,-18.3125,-55.75,0.04736328,-0.2714844,1.138184,0.08935547,-0.05371094,-0.1674805
296,-30.8125,-12,-53.375,0.05908203,-0.2832031,1.138184,0.07080078,-0.05664063,-0.159668
297,-34.375,-6.1875,-50.9375,0.03515625,-0.2832031,1.146484,0.07080078,-0.05664063,-0.159668
298,-37.6875,-6.75,-51.1875,0.03125,-0.2329102,1.102539,0.06298828,-0.05126953,-0.1674805
299,-37.875,-9.9375,-53.875,0.08691406,-0.2250977,1.122559,0.06298828,-0.04638672,-0.1489258
300,-35,-13.25,-54.75,0.08691406,-0.2792969,1.09082,0.06298828,-0.04638672,-0.1489258
301,-36.3125,-16.25,-55.1875,0.09912109,-0.2714844,1.094727,0.06005859,-0.04638672,-0.1542969
302,-37.8125,-16.5625,-55.625,0.09521484,-0.2792969,1.079102,0.06005859,-0.04638672,-0.1542969
303,-36.8125,-13.625,-55.9375,0.07519531,-0.2524414,1.071289,0.05224609,-0.04101563,-0.144043
304,-33.875,-8.0625,-57,0.07910156,-0.2641602,1.031738,0.05224609,-0.03076172,-0.1411133
305,-27.875,-0.5,-57.3125,0.04345703,-0.2675781,1.027832,0.05224609,-0.03076172,-0.1411133
306,-21.4375,5.8125,-57.1875,0.09082031,-0.2602539,1.011719,0.04394531,-0.04345703,-0.144043
307,-15.25,9.625,-56.875,0.1030273,-0.2563477,1.019531,0.046875,-0.05371094,-0.1411133
309,-8.5,13.5625,-56.3125,0.08691406,-0.2949219,1.035645,0.046875,-0.05371094,-0.1411133
310,-2.375,20.8125,-54.8125,0.08300781,-0.2675781,1.047363,0.03076172,-0.04101563,-0.1386719
311,2.6875,28.8125,-53.6875,0.06738281,-0.3139648,1.059082,0.03076172,-0.04101563,-0.1386719
312,4.9375,33.25,-53.5,0.06738281,-0.2524414,1.043457,0.03613281,-0.04101563,-0.1333008
313,6.125,33.75,-54.6875,0.05908203,-0.2910156,1,0.03076172,-0.03857422,-0.1411133
314,7.1875,32.3125,-56.1875,0.05517578,-0.2446289,1,0.03076172,-0.03857422,-0.1411133
315,8.625,32.25,-57.1875,0.07519531,-0.2871094,1.047363,0.03613281,-0.04345703,-0.1411133
316,10.9375,35.6875,-57.125,0.04345703,-0.2988281,1.071289,0.03613281,-0.04345703,-0.1411133
317,10.9375,42.4375,-54.8125,0.06738281,-0.3295898,1.086914,0.01757813,-0.04638672,-0.144043
318,9,47.5625,-51.8125,0.07519531,-0.3452148,1.055176,0.02294922,-0.05126953,-0.1542969
319,5.6875,47.5,-49.25,0.08691406,-0.3178711,1.023926,0.02294922,-0.05126953,-0.1542969
320,2.6875,42.1875,-47.0625,0.08300781,-0.2871094,1,0.01757813,-0.05126953,-0.1464844
321,0.5625,35.9375,-46.4375,0.08300781,-0.3105469,0.9760742,0.01757813,-0.05908203,-0.1464844
322,-1.625,31.0625,-47.1875,0.06738281,-0.3066406,1.031738,0.01757813,-0.05908203,-0.1464844
323,-0.5,30.875,-46.75,0.06738281,-0.3491211,1.031738,0.03320313,-0.06152344,-0.1518555
324,0.1875,34.375,-46,0.05517578,-0.3256836,1.019531,0.03320313,-0.06152344,-0.1518555
325,1.25,37.8125,-45.9375,0.05517578,-0.3564453,1.059082,0.02001953,-0.06396484,-0.1464844
326,3.9375,40.9375,-45.5,0.1030273,-0.3642578,1.027832,0.02539063,-0.05908203,-0.1518555
327,6.5,44.375,-43.5,0.05908203,-0.3916016,1.055176,0.02539063,-0.05908203,-0.1518555
328,7.625,46.5625,-41.6875,0.1030273,-0.3374023,1.055176,0.03320313,-0.06152344,-0.1572266
329,6.6875,46.5,-39.1875,0.08300781,-0.3798828,1.047363,0.03320313,-0.06152344,-0.1572266
330,6,44.4375,-37.3125,0.08300781,-0.3603516,1.059082,0.02001953,-0.05908203,-0.1674805
331,7.3125,41.6875,-35.125,0.06738281,-0.3452148,1.083008,0.02294922,-0.06933594,-0.1518555
332,7.5625,38.875,-32.5625,0.07519531,-0.3530273,1.059082,0.02294922,-0.06933594,-0.1518555
333,5.5,37.375,-29.125,0.07128906,-0.3916016,1.075195,0.02294922,-0.06152344,-0.175293
334,4.3125,35.5,-25.75,0.05908203,-0.3759766,1.063477,0.02539063,-0.06933594,-0.1621094
335,3.125,32.9375,-22.9375,0.05908203,-0.3681641,1.075195,0.02539063,-0.06933594,-0.1621094
336,0.75,30.625,-20.875,0.05908203,-0.3491211,1.086914,0.01757813,-0.07421875,-0.1650391
337,-0.9375,28.4375,-18.1875,0.0234375,-0.3491211,1.071289,0.01757813,-0.07421875,-0.1650391
338,-3.3125,26.25,-16.1875,0.03955078,-0.3530273,1.086914,0.02783203,-0.06933594,-0.1572266
339,-6.4375,23.5,-14.5625,0.05126953,-0.3564453,1.047363,0.02783203,-0.06689453,-0.1674805
340,-6.9375,21.6875,-14.25,0.01953125,-0.3530273,1.094727,0.02783203,-0.06689453,-0.1674805
341,-6.125,20.375,-13.6875,-0.00390625,-0.3720703,1.086914,0.03076172,-0.06396484,-0.1674805
342,-7,20.5,-12.125,0,-0.3491211,1.035645,0.03076172,-0.06396484,-0.1674805
343,-6.8125,21.375,-9.6875,-0.02001953,-0.3413086,1.031738,0.02294922,-0.06689453,-0.1621094
344,-4.0625,20.6875,-8,-0.01611328,-0.3413086,1.007813,0.02539063,-0.07714844,-0.1542969
345,-0.625,19.375,-7.375,-0.04003906,-0.3642578,1.031738,0.02539063,-0.07714844,-0.1542969
346,0.6875,18.5625,-6.75,-0.02001953,-0.3105469,1.011719,0.03320313,-0.06689453,-0.1621094
347,1.875,19.25,-6.3125,-0.07568359,-0.3564453,1.023926,0.03613281,-0.06933594,-0.175293
348,2.8125,21.375,-5.375,-0.08349609,-0.3295898,1.063477,0.03613281,-0.06933594,-0.175293
349,0.75,21.0625,-4,-0.08349609,-0.3413086,1.019531,0.04394531,-0.07421875,-0.1621094
350,0.375,18.6875,-3.5625,-0.07568359,-0.3530273,1.047363,0.04394531,-0.07421875,-0.1621094
351,-0.1875,18.25,-1.8125,-0.04394531,-0.3798828,1.071289,0.03857422,-0.07177734,-0.1650391
352,-5,19.1875,0.1875,-0.08349609,-0.3491211,1.063477,0.03857422,-0.07177734,-0.1728516
353,-9.25,17.6875,2.3125,-0.05957031,-0.3798828,1.039551,0.03857422,-0.07177734,-0.1728516
354,-13,14.75,3.25,-0.1035156,-0.3413086,1.023926,0.05224609,-0.06933594,-0.1650391
355,-17,10.9375,3.9375,-0.08740234,-0.3564453,1.015625,0.05224609,-0.06933594,-0.1650391
356,-20.5625,7.5,4.25,-0.07958984,-0.3452148,1.059082,0.03613281,-0.07421875,-0.1650391
357,-21.8125,5.3125,4.3125,-0.09570313,-0.3916016,1.05127,0.04150391,-0.07177734,-0.1621094
358,-21.875,3.625,4.4375,-0.05957031,-0.4145508,1.023926,0.04150391,-0.07177734,-0.1621094
359,-19.8125,4.25,4.5625,-0.01171875,-0.4145508,1.047363,0.05224609,-0.06933594,-0.1650391
360,-14.75,6.5625,4.5,-0.03564453,-0.4067383,1.039551,0.046875,-0.06152344,-0.1464844
361,-7.8125,12.25,4.3125,-0.0078125,-0.4106445,1.11084,0.046875,-0.06152344,-0.1464844
362,-3.4375,16.875,5.25,0.01953125,-0.4106445,1.094727,0.04931641,-0.06396484,-0.1572266
363,-2.4375,17.375,6.375,0.03125,-0.4453125,1.09082,0.04931641,-0.06396484,-0.1572266
364,-3.4375,17.125,8.0625,0.05517578,-0.434082,1.138184,0.0546875,-0.06152344,-0.1621094
365,-4.3125,16.8125,10.25,0.05908203,-0.4492188,1.14209,0.04394531,-0.06689453,-0.1542969
366,-6.8125,15.25,12.5,0.09082031,-0.4145508,1.14209,0.04394531,-0.06689453,-0.1542969
367,-10.5,11.6875,14.25,0.06298828,-0.434082,1.154297,0.0546875,-0.05126953,-0.159668
368,-12.375,10.3125,17.125,0.05126953,-0.418457,1.138184,0.0546875,-0.05126953,-0.159668
369,-15.75,11,21.625,0.05517578,-0.4379883,1.138184,0.04931641,-0.05664063,-0.1572266
370,-20.1875,10.125,25.4375,0.04345703,-0.418457,1.055176,0.06005859,-0.05664063,-0.1572266
371,-20.875,7.75,28.5,0.0234375,-0.4106445,1.031738,0.06005859,-0.05664063,-0.1572266
372,-17.625,5.3125,30.8125,0.03515625,-0.434082,1.015625,0.06542969,-0.05371094,-0.1621094
374,-12.1875,6.625,33.3125,0.04736328,-0.3916016,1.015625,0.06298828,-0.04638672,-0.1518555
375,-6.9375,9.9375,34.75,0.0234375,-0.3681641,1.05127,0.06298828,-0.04638672,-0.1518555
376,-2.625,13.3125,36.125,-0.04003906,-0.3452148,1.043457,0.06835938,-0.04882813,-0.1572266
377,-1.8125,15.5,37.0625,-0.04785156,-0.3642578,1.09082,0.06835938,-0.04882813,-0.1572266
378,-3.3125,16.75,38.75,-0.06347656,-0.3295898,1.019531,0.07080078,-0.05126953,-0.159668
379,-5.1875,15.375,40.4375,-0.07177734,-0.3491211,1.011719,0.07324219,-0.05908203,-0.1542969
380,-6.5,11.375,40.625,-0.08740234,-0.3105469,1.027832,0.07324219,-0.05908203,-0.1542969
381,-4.9375,8.4375,39.5625,-0.1074219,-0.3295898,1.031738,0.07861328,-0.05126953,-0.1542969
382,-2.625,8.5,39.125,-0.08349609,-0.2949219,1.047363,0.07861328,-0.05126953,-0.1542969
383,-3.5625,10.25,39.1875,-0.1235352,-0.3178711,1.035645,0.07861328,-0.05126953,-0.1542969
384,-4.1875,12,38.4375,-0.1035156,-0.3105469,1.027832,0.09472656,-0.04345703,-0.1542969
385,-2.8125,11.875,38.625,-0.1352539,-0.3295898,1.011719,0.09472656,-0.04345703,-0.1542969
386,-4,11.0625,39.625,-0.1152344,-0.3256836,0.9960938,0.09472656,-0.04345703,-0.1542969
387,-5.125,10.25,41.5,-0.1430664,-0.3564453,0.972168,0.09472656,-0.05126953,-0.1464844
388,-5.25,9,42.125,-0.09570313,-0.3178711,0.9921875,0.09472656,-0.05126953,-0.1464844
389,-0.1875,9.8125,41.6875,-0.1352539,-0.3139648,1.015625,0.09472656,-0.05126953,-0.1464844
390,7.6875,12.375,41.3125,-0.1196289,-0.3413086,1.071289,0.09472656,-0.05126953,-0.1464844
391,9.8125,14.625,41.625,-0.1235352,-0.3139648,1.043457,0.1000977,-0.04882813,-0.1489258
392,10.5,13.75,40.9375,-0.09130859,-0.2949219,1.079102,0.1000977,-0.04882813,-0.1489258
393,14.25,12.9375,40.625,-0.1196289,-0.3139648,1.118652,0.1000977,-0.04882813,-0.1489258
394,16.8125,13.3125,40.3125,-0.1152344,-0.2988281,1.177734,0.1162109,-0.05126953,-0.1542969
395,14,13.625,40.75,-0.09960938,-0.3027344,1.20166,0.1162109,-0.05126953,-0.1542969
396,7.125,14.25,40.1875,-0.09960938,-0.2949219,1.205566,0.1162109,-0.05126953,-0.1542969
397,4.125,14.875,40.375,-0.07177734,-0.2871094,1.256836,0.1162109,-0.05371094,-0.1621094
398,2.8125,13.9375,40.75,-0.07958984,-0.3105469,1.245117,0.1162109,-0.05371094,-0.1621094
399,-0.375,10.8125,41.125,-0.05566406,-0.3413086,1.209473,0.1162109,-0.05371094,-0.1621094
400,-7.0625,7.25,42.3125,-0.1035156,-0.3642578,1.264648,0.1376953,-0.05126953,-0.1621094
401,-14.1875,4.125,44,-0.06787109,-0.3139648,1.268555,0.1376953,-0.05126953,-0.1621094
402,-21.3125,1.375,45.0625,-0.08740234,-0.3642578,1.221191,0.1376953,-0.05126953,-0.1621094
403,-26.875,-2.625,43.875,-0.1113281,-0.3256836,1.225098,0.1376953,-0.05126953,-0.1621094
404,-31.0625,-5.5625,42.5,-0.1113281,-0.3642578,1.249023,0.1323242,-0.04882813,-0.159668
405,-33,-5.875,41.6875,-0.08740234,-0.3564453,1.237305,0.1323242,-0.04882813,-0.159668
406,-37.125,-5.25,42.625,-0.06347656,-0.3916016,1.177734,0.1323242,-0.04882813,-0.159668
407,-40.5625,-6.25,43.8125,-0.1035156,-0.3955078,1.118652,0.1401367,-0.03857422,-0.1650391
408,-42.6875,-9.5625,45.1875,-0.08349609,-0.3955078,1.031738,0.1401367,-0.03857422,-0.1650391
409,-40.6875,-11.9375,45.8125,-0.09960938,-0.3955078,1.079102,0.1401367,-0.03857422,-0.1650391
410,-31.8125,-8.9375,46.8125,-0.02783203,-0.3603516,1.059082,0.1401367,-0.02050781,-0.1489258
411,-19.5,0.9375,48.1875,-0.09130859,-0.3876953,1.118652,0.1401367,-0.02050781,-0.1489258
412,-12.875,11.3125,49.5,-0.1313477,-0.3759766,1.09082,0.1401367,-0.02050781,-0.1489258
413,-15.0625,18.375,50.0625,-0.1513672,-0.3642578,1.11084,0.1640625,-0.02832031,-0.1489258
414,-19.0625,19.8125,48.875,-0.190918,-0.3530273,1.055176,0.1640625,-0.02832031,-0.1489258
415,-20.25,17,47.125,-0.203125,-0.3720703,1.007813,0.1640625,-0.02832031,-0.1489258
416,-20.375,13.0625,46.5,-0.1870117,-0.3759766,1.011719,0.1640625,-0.02832031,-0.1489258
417,-21.0625,12.1875,46.4375,-0.1791992,-0.3530273,1.011719,0.1640625,-0.02050781,-0.144043
418,-19.8125,14.125,47.8125,-0.1791992,-0.3681641,0.9804688,0.1640625,-0.02050781,-0.144043
419,-20.5625,13.9375,48.75,-0.1791992,-0.3413086,0.9208984,0.1640625,-0.02050781,-0.144043
420,-21.3125,10.9375,48.8125,-0.2348633,-0.3178711,0.9287109,0.1801758,-0.01806641,-0.1308594
421,-20.125,7.125,48.5,-0.2905273,-0.3105469,0.8535156,0.1801758,-0.01806641,-0.1308594
422,-20.8125,3.1875,48,-0.2744141,-0.3217773,0.8339844,0.1801758,-0.01806641,-0.1308594
423,-19.875,1.4375,48.5625,-0.2944336,-0.3105469,0.7827148,0.1933594,-0.02832031,-0.1279297
424,-15.25,1.4375,50.3125,-0.2944336,-0.2563477,0.7231445,0.1933594,-0.02832031,-0.1279297
425,-4.5625,1.3125,49.875,-0.3261719,-0.2407227,0.7192383,0.1933594,-0.02832031,-0.1279297
426,10.375,2.4375,48.75,-0.3740234,-0.2177734,0.7470703,0.2094727,-0.01318359,-0.1308594
427,21.0625,5.25,46.375,-0.4379883,-0.1713867,0.7470703,0.2094727,-0.01318359,-0.1308594
428,25.625,12.1875,44.125,-0.5014648,-0.1518555,0.7431641,0.2094727,-0.01318359,-0.1308594
429,34.5,23.1875,40.125,-0.4775391,-0.1362305,0.7709961,0.2094727,-0.01318359,-0.1308594
430,51.0625,36.3125,34.9375,-0.5253906,-0.109375,0.7983398,0.2041016,-0.01806641,-0.1308594
431,63.9375,44.4375,28.3125,-0.5693359,-0.125,0.7905273,0.2041016,-0.01806641,-0.1308594
432,66.375,43.8125,21.0625,-0.5771484,-0.1171875,0.7666016,0.2041016,-0.01806641,-0.1308594
433,63.125,35.8125,14.1875,-0.5932617,-0.1015625,0.8300781,0.2177734,-0.03857422,-0.144043
434,55.6875,25.0625,7.9375,-0.612793,-0.144043,0.8300781,0.2177734,-0.03857422,-0.144043
435,44.6875,12.875,3.375,-0.625,-0.1557617,0.8457031,0.2177734,-0.03857422,-0.144043
436,31.25,0.9375,-0.0625,-0.6328125,-0.1826172,0.7983398,0.2231445,-0.04345703,-0.1621094
437,20,-9.875,-3.5625,-0.5571289,-0.1865234,0.8144531,0.2231445,-0.04345703,-0.1621094
439,14.625,-18.125,-8.8125,-0.597168,-0.1826172,0.8657227,0.2255859,-0.05126953,-0.1542969
440,11.75,-22.6875,-15.5,-0.6049805,-0.1713867,0.8696289,0.230957,-0.04345703,-0.1572266
441,8.375,-23.375,-22.625,-0.5649414,-0.2216797,0.8852539,0.230957,-0.04345703,-0.1572266
442,7.8125,-22.1875,-30.25,-0.5136719,-0.2563477,0.8974609,0.2177734,-0.05371094,-0.1621094
443,10.875,-19.875,-38.125,-0.4458008,-0.2949219,0.8852539,0.2177734,-0.05371094,-0.1621094
444,19.125,-16.375,-46,-0.3901367,-0.3139648,0.9365234,0.2148438,-0.04345703,-0.1542969
445,30.375,-13.0625,-50.875,-0.2866211,-0.3994141,0.9682617,0.2124023,-0.05664063,-0.1621094
446,40.1875,-8.1875,-53.5625,-0.1791992,-0.4379883,1.031738,0.2124023,-0.05664063,-0.1621094
447,49.75,-2,-52.6875,-0.1274414,-0.5073242,1.09082,0.2070313,-0.04882813,-0.1650391
448,55.5,4.25,-49,-0.04003906,-0.5229492,1.14209,0.2041016,-0.05664063,-0.1674805
449,56.4375,9.4375,-43.25,-0.02392578,-0.5268555,1.177734,0.2041016,-0.05664063,-0.1674805
450,57.375,12.5625,-37.125,0.04345703,-0.5419922,1.249023,0.1962891,-0.05664063,-0.1782227
451,56.875,12.4375,-29.9375,0.05517578,-0.5961914,1.324219,0.1962891,-0.05664063,-0.1782227
452,47.5,8.3125,-21.4375,0.05517578,-0.5576172,1.316406,0.190918,-0.07421875,-0.1728516
453,29.5625,-1.1875,-13.5625,0.09082031,-0.5805664,1.300293,0.1933594,-0.06689453,-0.1860352
454,11.625,-11.5,-5.4375,0.09521484,-0.5112305,1.308105,0.1933594,-0.06689453,-0.1860352
455,1.625,-19,0.75,0.06298828,-0.5458984,1.316406,0.1987305,-0.06689453,-0.1831055
456,-4.375,-26.25,5.1875,0.03125,-0.4916992,1.308105,0.1987305,-0.06689453,-0.1831055
457,-12.1875,-33.25,8.375,-0.03173828,-0.4882813,1.256836,0.1884766,-0.07421875,-0.1938477
458,-20.875,-39.625,10.4375,-0.05175781,-0.46875,1.233398,0.1855469,-0.07177734,-0.1860352
459,-28,-43.8125,13.0625,-0.09130859,-0.4492188,1.193848,0.1855469,-0.07177734,-0.1860352
460,-29.9375,-41.5625,16.5,-0.09130859,-0.4379883,1.166016,0.1831055,-0.06396484,-0.1884766
461,-29,-35.75,18.5625,-0.09570313,-0.4492188,1.130371,0.1855469,-0.05664063,-0.1806641
462,-24.125,-31.375,18.8125,-0.1074219,-0.4223633,1.083008,0.1855469,-0.05664063,-0.1806641
463,-18.625,-28.6875,18.6875,-0.1391602,-0.3955078,1.075195,0.1801758,-0.06152344,-0.1806641
464,-16.9375,-25.5625,18.4375,-0.1591797,-0.418457,1.075195,0.1801758,-0.06152344,-0.1806641
465,-16.625,-21.6875,17.5625,-0.1870117,-0.3994141,1.059082,0.190918,-0.06396484,-0.1831055
466,-15.25,-17.5625,15.875,-0.1948242,-0.3916016,1.039551,0.1855469,-0.05908203,-0.175293
467,-14.3125,-13.8125,14.3125,-0.21875,-0.4145508,1.027832,0.1855469,-0.05908203,-0.175293
468,-11.6875,-8.0625,11.6875,-0.2226563,-0.3564453,1,0.190918,-0.05126953,-0.175293
469,-4.8125,-1.25,8.4375,-0.1948242,-0.3681641,1.015625,0.190918,-0.05126953,-0.175293
470,5.375,3.625,4.5,-0.1591797,-0.3066406,1.031738,0.1884766,-0.05908203,-0.175293
471,13.5,8.625,2.25,-0.2109375,-0.3564453,1.079102,0.1801758,-0.06152344,-0.1728516
472,16.125,12.9375,0.25,-0.2070313,-0.3413086,1.063477,0.1801758,-0.06152344,-0.1728516
473,14.4375,14.9375,-1.1875,-0.203125,-0.3105469,1.067383,0.1884766,-0.05126953,-0.1831055
474,12.875,14.25,-4.3125,-0.1831055,-0.3413086,1.079102,0.1831055,-0.05371094,-0.1782227
475,14.5625,14.375,-6.4375,-0.1870117,-0.3066406,1.086914,0.1831055,-0.05371094,-0.1782227
476,14.5625,16.3125,-8.6875,-0.190918,-0.3139648,1.130371,0.1831055,-0.05908203,-0.1806641
477,14.875,19.375,-11.3125,-0.1948242,-0.2949219,1.126465,0.1831055,-0.05908203,-0.1806641
478,15.1875,21.25,-14.25,-0.1831055,-0.2792969,1.134277,0.190918,-0.05371094,-0.1831055
479,16.125,22.0625,-16.9375,-0.2109375,-0.2988281,1.134277,0.1855469,-0.05664063,-0.1884766
480,14.5625,23.1875,-17.625,-0.190918,-0.3256836,1.14209,0.1855469,-0.05664063,-0.1884766
481,8.125,22.375,-18.3125,-0.1791992,-0.3139648,1.158203,0.190918,-0.06396484,-0.1806641
482,0.875,19.875,-19.0625,-0.1630859,-0.2910156,1.098633,0.190918,-0.06396484,-0.1806641
483,-3,16,-20.375,-0.1274414,-0.2949219,1.11084,0.190918,-0.06689453,-0.1831055
484,-3.75,15.4375,-20.8125,-0.1274414,-0.2949219,1.09082,0.1933594,-0.05908203,-0.1860352
485,-4.75,17.75,-20.3125,-0.1474609,-0.3295898,1.035645,0.1933594,-0.05908203,-0.1860352
486,-6.75,18.75,-19.0625,-0.1274414,-0.2753906,1.007813,0.1884766,-0.06396484,-0.1728516
487,-7.6875,16.625,-18.8125,-0.1196289,-0.2871094,0.9804688,0.1855469,-0.06933594,-0.1674805
488,-5.375,12.4375,-19.875,-0.1513672,-0.2641602,0.9804688,0.1855469,-0.06933594,-0.1674805
489,1.125,10.6875,-20.9375,-0.1474609,-0.2602539,0.9604492,0.1933594,-0.05908203,-0.1806641
490,7.25,10.4375,-22.0625,-0.1630859,-0.2563477,0.956543,0.1933594,-0.05908203,-0.1806641
491,10.25,11.75,-22.9375,-0.1831055,-0.2446289,0.9760742,0.1962891,-0.05664063,-0.1782227
492,14.25,12.5,-24.3125,-0.1831055,-0.2177734,0.9960938,0.1987305,-0.06152344,-0.175293
493,17.0625,13.9375,-26.25,-0.203125,-0.2216797,1.023926,0.1987305,-0.06152344,-0.175293
494,16.8125,13.5625,-27.4375,-0.2270508,-0.2021484,0.9882813,0.1855469,-0.05908203,-0.1831055
495,14,10.9375,-29.75,-0.2744141,-0.1943359,0.9882813,0.1855469,-0.05908203,-0.1831055
496,10.375,10.0625,-30.625,-0.2626953,-0.1904297,0.956543,0.1962891,-0.05371094,-0.1806641
497,8.75,9.375,-31.9375,-0.2626953,-0.1904297,0.9643555,0.1884766,-0.06689453,-0.1860352
498,8.8125,7.5,-33.5625,-0.2626953,-0.1635742,0.9604492,0.1884766,-0.06689453,-0.1860352
499,10.125,6.6875,-34.1875,-0.230957,-0.159668,0.9604492,0.190918,-0.06152344,-0.1806641
500,9.3125,7.1875,-34.5,-0.2548828,-0.1674805,0.8974609,0.1884766,-0.06396484,-0.175293
501,11.3125,8.75,-35.25,-0.2548828,-0.1674805,0.940918,0.1884766,-0.06396484,-0.175293
502,14.75,9.25,-37.125,-0.2666016,-0.1865234,0.956543,0.1801758,-0.06396484,-0.1782227
504,17.5,8.3125,-39.625,-0.2905273,-0.159668,0.9487305,0.1801758,-0.06396484,-0.1782227
505,19.5,8.1875,-43.5,-0.2744141,-0.1518555,0.972168,0.1748047,-0.06689453,-0.1782227
506,23.75,9.875,-47,-0.2626953,-0.144043,1.007813,0.1640625,-0.06689453,-0.1806641
507,26.1875,12.5625,-50.5625,-0.2788086,-0.2060547,1.007813,0.1640625,-0.06689453,-0.1806641
508,27.875,15.25,-53.0625,-0.2426758,-0.2021484,1.043457,0.1694336,-0.07714844,-0.1860352
509,28,15.8125,-55.0625,-0.246582,-0.175293,1.023926,0.1694336,-0.07714844,-0.1860352
510,26.5625,14.75,-56.1875,-0.2226563,-0.1674805,1.003906,0.1640625,-0.07714844,-0.1831055
511,24.8125,12.5625,-55.9375,-0.2148438,-0.2060547,1.015625,0.1640625,-0.07177734,-0.1860352
512,23.8125,11.25,-54.9375,-0.203125,-0.2060547,1.071289,0.1640625,-0.07177734,-0.1860352
513,24.5625,11,-53.875,-0.2148438,-0.1943359,1.071289,0.1669922,-0.07421875,-0.1806641
514,24.9375,10.25,-52.1875,-0.1870117,-0.2290039,1.106934,0.1640625,-0.08984375,-0.1938477
515,23.1875,8.625,-50.9375,-0.1870117,-0.2177734,1.106934,0.1640625,-0.08984375,-0.1938477
516,18.875,4.9375,-50.1875,-0.2109375,-0.2446289,1.102539,0.1508789,-0.08203125,-0.1992188
517,15.5625,1.9375,-49.1875,-0.1713867,-0.2216797,1.106934,0.1508789,-0.08203125,-0.1992188
518,11.25,0.125,-47.875,-0.1870117,-0.2368164,1.11084,0.1640625,-0.09228516,-0.1884766
519,7.5,-2.1875,-46.4375,-0.1713867,-0.2563477,1.098633,0.15625,-0.09228516,-0.2045898
520,5.6875,-5.1875,-45.1875,-0.1870117,-0.2792969,1.102539,0.15625,-0.09228516,-0.2045898
521,4.375,-7.9375,-44.75,-0.1948242,-0.2792969,1.075195,0.1455078,-0.08740234,-0.1992188
522,4.875,-9.8125,-43.5625,-0.1791992,-0.2871094,1.09082,0.1455078,-0.08740234,-0.1992188
523,4.6875,-11,-42.5625,-0.2226563,-0.2675781,1.083008,0.1455078,-0.08740234,-0.2016602
524,2.6875,-12.8125,-41.875,-0.2387695,-0.2949219,1.047363,0.1347656,-0.07714844,-0.2045898
525,-0.1875,-14.75,-41.4375,-0.2348633,-0.3105469,1.003906,0.1347656,-0.07714844,-0.2045898
526,-2.6875,-16.9375,-39.9375,-0.2070313,-0.3564453,1.015625,0.1347656,-0.09228516,-0.1860352
527,-5,-17.5,-37.9375,-0.2070313,-0.3413086,1.031738,0.1323242,-0.08447266,-0.2016602
528,-5.25,-17.25,-35.625,-0.2070313,-0.3256836,1,0.1323242,-0.08447266,-0.2016602
529,-2.1875,-17.0625,-33.875,-0.2070313,-0.3413086,0.9448242,0.1083984,-0.08447266,-0.1938477
530,0.625,-18.9375,-33.75,-0.2226563,-0.2988281,0.972168,0.1083984,-0.08447266,-0.1938477
531,4.3125,-18.125,-34.75,-0.2426758,-0.3295898,1,0.1186523,-0.08203125,-0.1962891
532,11.125,-12.6875,-34.625,-0.2587891,-0.2910156,1.031738,0.121582,-0.07714844,-0.1914063
533,15.6875,-5.5,-36,-0.246582,-0.3295898,1.031738,0.121582,-0.07714844,-0.1914063
534,20.375,-0.6875,-37.4375,-0.2626953,-0.3027344,1.055176,0.1083984,-0.08203125,-0.2045898
535,24.875,2.75,-38.8125,-0.2666016,-0.3027344,1.067383,0.1083984,-0.08203125,-0.2045898
536,26.4375,3.125,-39.8125,-0.3183594,-0.3256836,1.079102,0.1083984,-0.09472656,-0.2045898
537,25.375,1.8125,-41,-0.2705078,-0.3139648,1.122559,0.09765625,-0.09472656,-0.2016602
538,25.0625,1.5625,-40.875,-0.230957,-0.3491211,1.138184,0.09765625,-0.09472656,-0.2016602
539,22,0.625,-40.3125,-0.2744141,-0.3413086,1.114746,0.1000977,-0.09228516,-0.2016602
540,16.0625,-4.3125,-41.25,-0.2788086,-0.3027344,1.134277,0.1000977,-0.1025391,-0.2124023
541,10.8125,-8.8125,-42.375,-0.2509766,-0.3178711,1.150391,0.1000977,-0.1025391,-0.2124023
542,7.4375,-7.75,-41.375,-0.21875,-0.3413086,1.126465,0.09472656,-0.1049805,-0.2016602
543,10.4375,-2.5625,-37.875,-0.1870117,-0.3295898,1.14209,0.09472656,-0.1049805,-0.2016602
544,17.1875,1.625,-32.4375,-0.1474609,-0.3256836,1.130371,0.08691406,-0.1025391,-0.2148438
545,22.9375,2.5625,-26.5625,-0.1430664,-0.3530273,1.102539,0.09228516,-0.1025391,-0.2124023
546,26.6875,0.375,-20.5,-0.1274414,-0.3066406,1.086914,0.09228516,-0.1025391,-0.2124023
547,27.5,-2.5,-14.8125,-0.1591797,-0.2641602,1.130371,0.07617188,-0.1103516,-0.2124023
548,26.1875,-5.0625,-8.8125,-0.1713867,-0.2910156,1.166016,0.07617188,-0.1103516,-0.2124023
549,21.6875,-7.9375,-2.6875,-0.190918,-0.2832031,1.14209,0.08398438,-0.112793,-0.2045898
550,12.625,-12.9375,2.75,-0.203125,-0.2641602,1.130371,0.08154297,-0.1230469,-0.2094727
551,5,-18.5625,7.0625,-0.246582,-0.2524414,1.14209,0.08154297,-0.1230469,-0.2094727
552,-0.25,-23.3125,10.5,-0.2548828,-0.2714844,1.126465,0.08154297,-0.112793,-0.2148438
553,-5.3125,-25.3125,13.0625,-0.3066406,-0.2407227,1.114746,0.07080078,-0.1176758,-0.2202148
554,-9.5,-25.9375,14.75,-0.2827148,-0.2641602,1.063477,0.07080078,-0.1176758,-0.2202148
555,-10.5625,-25.5625,15.5,-0.3105469,-0.2832031,1.094727,0.07617188,-0.1103516,-0.2177734
556,-8.1875,-24.375,15.4375,-0.3027344,-0.2563477,1.059082,0.07617188,-0.1103516,-0.2177734
557,-5,-22,15.125,-0.2827148,-0.2485352,1.023926,0.07861328,-0.1049805,-0.2124023
558,-0.0625,-15.875,16.125,-0.2744141,-0.2871094,1.071289,0.07324219,-0.1074219,-0.2202148
559,5.5,-8.9375,17.1875,-0.2348633,-0.2988281,1.075195,0.07324219,-0.1074219,-0.2202148
560,10,-2.125,18.375,-0.1992188,-0.2832031,1.09082,0.06298828,-0.1103516,-0.2094727
561,16.625,3.25,19.1875,-0.2109375,-0.2407227,1.138184,0.06298828,-0.1103516,-0.2094727
562,21.3125,7.5,20.6875,-0.1992188,-0.2290039,1.166016,0.07080078,-0.1230469,-0.2177734
563,20.9375,9.3125,22.125,-0.1870117,-0.2446289,1.169922,0.07324219,-0.1103516,-0.2148438
564,17.6875,10.0625,23.875,-0.1791992,-0.2563477,1.189941,0.07324219,-0.1103516,-0.2148438
565,12.3125,9.9375,26.375,-0.1352539,-0.2485352,1.189941,0.07080078,-0.1230469,-0.2255859
566,6.875,8.0625,28.6875,-0.1391602,-0.2329102,1.197754,0.09228516,-0.1176758,-0.2255859
567,2.25,4.625,31,-0.1352539,-0.2485352,1.189941,0.09228516,-0.1176758,-0.2255859
569,-2.5,1.1875,33.375,-0.08349609,-0.2329102,1.166016,0.08154297,-0.1230469,-0.2226563
570,-5.125,-0.125,35.625,-0.1035156,-0.2250977,1.205566,0.08154297,-0.1230469,-0.2226563
571,-6.1875,1.4375,38.5,-0.08740234,-0.2290039,1.185547,0.07324219,-0.1152344,-0.2280273
572,-8.25,1.375,41.3125,-0.1074219,-0.2216797,1.11084,0.08398438,-0.1152344,-0.2226563
573,-8.75,0.5,44.4375,-0.09570313,-0.2446289,1.083008,0.08398438,-0.1152344,-0.2226563
574,-7.3125,0.4375,47.5,-0.1074219,-0.2368164,1.118652,0.08691406,-0.1103516,-0.2202148
575,-3.875,0.6875,49.625,-0.1474609,-0.2216797,1.150391,0.08691406,-0.1103516,-0.2202148
576,-1.3125,0.125,50.75,-0.1591797,-0.2177734,1.150391,0.08935547,-0.112793,-0.230957
577,-0.25,0.6875,51.75,-0.1552734,-0.2290039,1.169922,0.1000977,-0.1103516,-0.2177734
578,-1.5,2.375,53.5,-0.1513672,-0.2177734,1.225098,0.1000977,-0.1103516,-0.2177734
579,-5.5625,3.9375,54.75,-0.1513672,-0.2290039,1.217285,0.1054688,-0.1176758,-0.2226563
580,-11.8125,4.875,56.375,-0.1713867,-0.2446289,1.197754,0.1000977,-0.1103516,-0.2255859
581,-19.25,3.8125,56.875,-0.1430664,-0.2177734,1.158203,0.1000977,-0.1103516,-0.2255859
582,-25.5625,0.625,57.375,-0.1591797,-0.2021484,1.154297,0.1108398,-0.1074219,-0.2148438
583,-29.125,-1.3125,58.25,-0.1196289,-0.1787109,1.094727,0.1108398,-0.1074219,-0.2148438
584,-30.8125,-2.0625,58.8125,-0.1391602,-0.1826172,1.150391,0.1108398,-0.1049805,-0.2094727
585,-31,-3.8125,59.25,-0.1669922,-0.1943359,1.102539,0.1240234,-0.1049805,-0.2202148
586,-31.0625,-5.9375,58.6875,-0.1591797,-0.1904297,1.11084,0.1240234,-0.1049805,-0.2202148
587,-30.25,-6.4375,57.3125,-0.1591797,-0.1943359,1.122559,0.121582,-0.09765625,-0.2148438
588,-30.25,-6.5625,55.125,-0.1630859,-0.1635742,1.086914,0.121582,-0.09765625,-0.2148438
589,-29.125,-7.5,52.6875,-0.1992188,-0.1713867,1.067383,0.1162109,-0.1025391,-0.2177734
590,-28.1875,-7.4375,49.25,-0.1791992,-0.1904297,1.102539,0.1293945,-0.09765625,-0.2016602
591,-27.875,-5.4375,45.9375,-0.1791992,-0.1982422,1.09082,0.1293945,-0.09765625,-0.2016602
592,-28,-2.9375,43.5625,-0.1713867,-0.1787109,1.086914,0.1376953,-0.1025391,-0.2045898
593,-28.125,-1.3125,41.25,-0.1669922,-0.2138672,1.039551,0.1293945,-0.08447266,-0.1962891
594,-25.8125,-0.1875,38.75,-0.1313477,-0.2021484,1.011719,0.1293945,-0.08447266,-0.1962891
595,-23.875,-1.1875,36.3125,-0.1274414,-0.2021484,1.015625,0.1293945,-0.09228516,-0.1992188
596,-19.8125,-0.75,34.375,-0.1430664,-0.1943359,1,0.1293945,-0.09228516,-0.1992188
597,-14.625,0.625,32.4375,-0.1074219,-0.1904297,0.984375,0.1484375,-0.08203125,-0.2070313
598,-7.6875,0,31.5625,-0.1035156,-0.1943359,0.9960938,0.1347656,-0.07421875,-0.1962891
599,-3.8125,-0.1875,31.25,-0.06787109,-0.2021484,0.9526367,0.1347656,-0.07421875,-0.1962891
600,-0.625,-3.625,31.375,-0.09960938,-0.1635742,0.9643555,0.1455078,-0.08447266,-0.1914063
601,-1,-9.625,32,-0.09960938,-0.2021484,0.9643555,0.1455078,-0.08447266,-0.1914063
602,0.25,-13.375,33.5625,-0.05957031,-0.1904297,0.9526367,0.1484375,-0.07714844,-0.1992188
603,4.1875,-15.5,36.0625,-0.07958984,-0.1982422,0.9643555,0.1455078,-0.07714844,-0.1914063
604,5.875,-13.125,39,-0.08349609,-0.2099609,0.9921875,0.1455078,-0.07714844,-0.1914063
605,9.1875,-8.0625,41.75,-0.1235352,-0.175293,0.9804688,0.1484375,-0.07421875,-0.2045898
606,15.9375,-2.25,42.5625,-0.175293,-0.175293,1.019531,0.1533203,-0.08203125,-0.1962891
607,25.6875,3.875,42.75,-0.1791992,-0.1982422,0.9960938,0.1533203,-0.08203125,-0.1962891
608,31.875,7.125,42.1875,-0.2070313,-0.1674805,0.9643555,0.1669922,-0.07958984,-0.2070313
609,36,7.75,41.3125,-0.2348633,-0.1713867,0.9760742,0.1669922,-0.07958984,-0.2070313
610,40.4375,9.125,39.6875,-0.2348633,-0.1635742,0.956543,0.1694336,-0.07958984,-0.1992188
611,44.3125,12.25,38.375,-0.2587891,-0.2021484,0.9760742,0.1694336,-0.09228516,-0.1914063
612,46.3125,17.75,37.75,-0.2827148,-0.1865234,0.9365234,0.1694336,-0.09228516,-0.1914063
613,47.9375,23.3125,37.3125,-0.2983398,-0.1904297,0.9169922,0.1640625,-0.08740234,-0.1962891
614,47.75,27.0625,37.5,-0.2666016,-0.1787109,0.9130859,0.1640625,-0.08740234,-0.1962891
615,48.875,30.0625,38.5625,-0.2788086,-0.2138672,0.8579102,0.1723633,-0.08740234,-0.1962891
616,50.6875,31.375,40.125,-0.2788086,-0.2329102,0.8222656,0.1855469,-0.1000977,-0.2070313
617,52.125,25.125,40.8125,-0.2705078,-0.1982422,0.7666016,0.1855469,-0.1000977,-0.2070313
618,51.625,16.5,41,-0.2270508,-0.2368164,0.7983398,0.1987305,-0.1074219,-0.1938477
619,49.5,9.6875,42.1875,-0.2226563,-0.2871094,0.7749023,0.2070313,-0.1152344,-0.1992188
620,44.75,7.625,45.8125,-0.2148438,-0.3139648,0.7392578,0.2070313,-0.1152344,-0.1992188
621,34.875,4.5,51.25,-0.2426758,-0.3374023,0.6958008,0.1962891,-0.1176758,-0.1962891
622,25.75,1.125,57.9375,-0.21875,-0.2714844,0.6323242,0.1962891,-0.1176758,-0.1962891
623,28,-0.25,62.875,-0.246582,-0.2329102,0.671875,0.2041016,-0.1230469,-0.1962891
624,38.3125,-0.5625,66.4375,-0.2666016,-0.1904297,0.6088867,0.2094727,-0.1152344,-0.1962891
625,48.5,-5,66.8125,-0.3261719,-0.1557617,0.6166992,0.2094727,-0.1152344,-0.1962891
626,53.3125,-12.0625,64.3125,-0.3779297,-0.109375,0.6323242,0.2094727,-0.1230469,-0.2045898
627,56.1875,-14.5625,58.625,-0.4379883,-0.05908203,0.6835938,0.2094727,-0.1230469,-0.2045898
628,66.875,-11.625,52.6875,-0.4458008,-0.04736328,0.7905273,0.2177734,-0.1206055,-0.2070313
629,75.8125,-7.9375,47.75,-0.3979492,-0.05908203,0.8417969,0.2041016,-0.1279297,-0.2045898
630,74.875,-1.0625,45.4375,-0.3901367,-0.1015625,0.9526367,0.2041016,-0.1279297,-0.2045898
631,69.75,9.125,46.1875,-0.3540039,-0.08642578,1.007813,0.2148438,-0.1333008,-0.2094727
632,66.4375,19.0625,47.8125,-0.3027344,-0.109375,1.063477,0.2177734,-0.1357422,-0.2094727
634,66,26.5625,50.4375,-0.2426758,-0.09765625,1.126465,0.2177734,-0.1357422,-0.2094727
635,63.4375,29.625,52.25,-0.1992188,-0.07080078,1.162109,0.2202148,-0.1435547,-0.2045898
636,57.5625,29,54.625,-0.1713867,-0.09375,1.25293,0.2202148,-0.1435547,-0.2045898
637,51.125,24.375,56.9375,-0.1430664,-0.07861328,1.320313,0.2255859,-0.1513672,-0.2177734
638,38.875,24.1875,61.6875,-0.09570313,-0.1015625,1.355957,0.2255859,-0.1435547,-0.2124023
639,25.875,27.875,67.3125,-0.04394531,-0.06298828,1.450684,0.2255859,-0.1435547,-0.2124023
640,17.9375,27.1875,71.4375,0.01123047,-0.05908203,1.458496,0.2231445,-0.1357422,-0.2045898
641,9.75,16.75,73.3125,-0.04394531,-0.04736328,1.490234,0.2231445,-0.1357422,-0.2045898
642,-2.875,0,72.875,-0.07177734,-0.02441406,1.494141,0.2363281,-0.1333008,-0.2094727
643,-17,-12.0625,71.3125,-0.01171875,-0.004882813,1.537598,0.2338867,-0.1230469,-0.2045898
644,-23.8125,-19.9375,68.75,-0.07177734,-0.03222656,1.616699,0.2338867,-0.1230469,-0.2045898
645,-29.9375,-21,67.4375,-0.05957031,-0.06689453,1.612793,0.2338867,-0.1049805,-0.2016602
646,-38.75,-16.8125,68.625,-0.06347656,-0.07080078,1.573242,0.2363281,-0.1000977,-0.1962891
647,-48.4375,-12.875,70.0625,-0.03564453,-0.04003906,1.521973,0.2363281,-0.1000977,-0.1962891
648,-56.9375,-13.75,71.625,-0.02783203,-0.05517578,1.438965,0.2255859,-0.08203125,-0.1884766
649,-61.5,-14.9375,73.75,-0.02392578,-0.05908203,1.335938,0.2255859,-0.08203125,-0.1884766
650,-58.4375,-12.75,76.5625,-0.02392578,-0.03222656,1.3125,0.2441406,-0.06152344,-0.1728516
651,-49.6875,-8.5625,79.125,-0.09570313,-0.02050781,1.284668,0.2495117,-0.05371094,-0.1704102
652,-42.8125,-6.0625,78.5625,-0.1591797,0.009765625,1.260742,0.2495117,-0.05371094,-0.1704102
653,-37.5625,-2.4375,75.125,-0.2109375,0.02929688,1.288574,0.2495117,-0.03076172,-0.175293
654,-35.75,-1.8125,69.625,-0.3105469,0.02929688,1.233398,0.2495117,-0.03076172,-0.175293
655,-39.9375,-4.0625,61.4375,-0.3740234,0.04443359,1.185547,0.2685547,-0.02832031,-0.1650391
656,-44.125,-3.0625,53.625,-0.3823242,0.02148438,1.138184,0.2578125,-0.01025391,-0.1464844
657,-45.75,-0.375,47.8125,-0.3583984,0.01367188,1.063477,0.2578125,-0.01025391,-0.1464844
658,-46,1.125,43,-0.3183594,-0.02832031,1.027832,0.2631836,0.004394531,-0.1308594
659,-44.5625,1.5625,41.0625,-0.2866211,-0.03613281,0.9365234,0.265625,0.02246094,-0.1044922
660,-40.8125,3.625,39.875,-0.2666016,-0.05908203,0.9013672,0.265625,0.02246094,-0.1044922
661,-30.8125,2.4375,37.3125,-0.3305664,0.01757813,0.8535156,0.2602539,0.03515625,-0.09375
662,-20.5625,-5.6875,31.8125,-0.3701172,0.02929688,0.8378906,0.2602539,0.03515625,-0.09375
663,-14.5625,-9.875,27.0625,-0.394043,0.01367188,0.9091797,0.2524414,0.06054688,-0.08056641
664,-9.75,-1.6875,26.4375,-0.3823242,0.02539063,0.9326172,0.2524414,0.09130859,-0.05712891
665,0.75,12.9375,26,-0.3740234,0.03710938,0.9921875,0.2524414,0.09130859,-0.05712891
666,17.8125,28.375,23.1875,-0.4179688,0.07958984,1.05127,0.2416992,0.1015625,-0.04394531
667,31,32.125,17.875,-0.5371094,0.152832,1.039551,0.2416992,0.1015625,-0.04394531
668,31.0625,16.9375,2.625,-0.6166992,0.2109375,1.067383,0.2124023,0.1474609,-0.03613281
669,26.4375,1.4375,-13.5625,-0.6328125,0.253418,1.217285,0.1748047,0.1938477,-0.04101563
670,20.6875,-2.25,-24.1875,-0.5849609,0.1796875,1.34375,0.1748047,0.1938477,-0.04101563
671,8.875,-0.125,-26.625,-0.5136719,0.09472656,1.355957,0.1269531,0.2246094,-0.06494141
672,-6.375,-4.25,-25.75,-0.4335938,0.06396484,1.296387,0.07617188,0.2397461,-0.09912109
673,-26.8125,-17.8125,-25,-0.394043,0.02929688,1.284668,0.07617188,0.2397461,-0.09912109
674,-41.5,-32.9375,-25.3125,-0.3422852,0.01367188,1.288574,0.03613281,0.2397461,-0.1621094
675,-49.75,-42.3125,-26.6875,-0.3027344,0.02148438,1.272949,0.03613281,0.2397461,-0.1621094
676,-53.0625,-47.1875,-27.25,-0.2226563,-0.02050781,1.268555,0.00390625,0.2216797,-0.2124023
677,-50.25,-46.25,-25.9375,-0.1430664,-0.05908203,1.260742,-0.0009765625,0.1962891,-0.2597656
678,-45.9375,-35.1875,-22.5,-0.07958984,-0.109375,1.308105,-0.0009765625,0.1962891,-0.2597656
679,-37.875,-11.875,-14.5,-0.07568359,-0.144043,1.339844,0.001464844,0.1606445,-0.2939453
680,-31.3125,5.5625,-7.75,-0.05957031,-0.1328125,1.268555,0.001464844,0.1606445,-0.2939453
681,-31.5,6.8125,-4.5625,0.05908203,-0.1328125,1.205566,0.009277344,0.1220703,-0.3149414
682,-27.0625,3,-0.8125,0.1147461,-0.2177734,1.25293,0.03857422,0.09375,-0.3466797
683,-22.875,0.6875,6.75,0.222168,-0.2675781,1.335938,0.03857422,0.09375,-0.3466797
684,-22.6875,1.9375,18.8125,0.3178711,-0.3217773,1.375488,0.06005859,0.06591797,-0.3491211
685,-26.875,10.75,33.875,0.3579102,-0.3759766,1.426758,0.09765625,0.03759766,-0.34375
686,-35.6875,20.4375,49.0625,0.2700195,-0.4301758,1.39502,0.09765625,0.03759766,-0.34375
687,-52.0625,19.1875,58.375,0.2104492,-0.3295898,1.268555,0.121582,0.02246094,-0.3466797
688,-70.125,7.625,59.5625,0.1826172,-0.2641602,1.193848,0.121582,0.02246094,-0.3466797
689,-73.5625,-1.125,59.125,0.1625977,-0.2714844,1.185547,0.1186523,0.02246094,-0.34375
690,-67.1875,1.125,60.125,0.09521484,-0.2910156,1.162109,0.1186523,0.04003906,-0.34375
691,-60.875,7.125,59.5,0.03515625,-0.2641602,1.047363,0.1186523,0.04003906,-0.34375
692,-50.0625,12.375,58.1875,-0.0078125,-0.1982422,0.9760742,0.1054688,0.04003906,-0.3256836
693,-36.5625,17.1875,54.75,-0.1196289,-0.1557617,0.8974609,0.1054688,0.04003906,-0.3256836
694,-27.625,22.125,47.1875,-0.2270508,-0.06298828,0.8457031,0.1030273,0.05810547,-0.3173828
695,-15.75,29.75,37.125,-0.3144531,-0.02441406,0.8061523,0.08154297,0.07373047,-0.3227539
696,0.5625,43.125,27.6875,-0.3979492,0.06396484,0.7392578,0.08154297,0.07373047,-0.3227539
697,13.875,58.5625,20.125,-0.4179688,0.137207,0.6640625,0.07324219,0.06054688,-0.3149414
699,33.4375,67.75,15.0625,-0.3500977,0.1645508,0.5654297,0.06005859,0.07080078,-0.3227539
700,61.1875,75.75,13.8125,-0.2983398,0.1796875,0.5058594,0.06005859,0.07080078,-0.3227539
701,93.75,83.5625,11.875,-0.2983398,0.21875,0.5888672,0.06298828,0.06591797,-0.3515625
702,127.8125,97.875,13.3125,-0.3344727,0.2416992,0.6166992,0.06298828,0.06591797,-0.3515625
703,154.9375,109.625,16.75,-0.3500977,0.2802734,0.7431641,0.07861328,0.05029297,-0.3886719
704,259.0625,224,55.25,-0.4975586,-0.418457,3.36377,0.1240234,0.02734375,-0.4360352
705,251.3125,215.9375,76.5,-0.4897461,0.4194336,2.055176,0.1240234,0.02734375,-0.4360352
706,-41.8125,21.5,4.3125,-0.3344727,0.9604492,0.5927734,0.1777344,-0.01025391,-0.4516602
707,-220.5625,-86.8125,-34.4375,-0.4975586,0.2880859,0.7353516,0.1777344,-0.01025391,-0.4516602
708,-165.75,-100.9375,-26.9375,-0.5253906,0.08349609,0.8457031,0.1669922,0,-0.4360352
709,-82.4375,-55.125,-16.5,-0.3183594,0.1220703,0.7548828,0.1586914,0.01953125,-0.409668
710,-18.9375,7.25,-4.4375,-0.2387695,-0.02441406,1.043457,0.1586914,0.01953125,-0.409668
711,30.625,53.6875,8.25,-0.230957,-0.05517578,1.20166,0.1694336,0.02978516,-0.4204102
712,34.5625,64.9375,10.6875,-0.1831055,-0.04736328,1.150391,0.1933594,0.01464844,-0.4204102
713,10.125,44.4375,5.125,-0.21875,-0.02832031,1.059082,0.1933594,0.01464844,-0.4204102
714,-1,19.875,-2.25,-0.3027344,-0.1401367,1.015625,0.190918,0.009765625,-0.4204102
715,23,17.1875,-5.625,-0.3540039,-0.02832031,1.015625,0.190918,0.009765625,-0.4204102
716,74.5,32,-13.5,-0.4140625,-0.07470703,0.9960938,0.2016602,0.01953125,-0.4174805
717,95.625,54.75,-12.3125,-0.3623047,-0.1557617,0.984375,0.2016602,0.01953125,-0.4174805
718,84.125,69.75,-5.8125,-0.3027344,-0.1943359,1.027832,0.2016602,0.01953125,-0.4174805
719,65.125,67.3125,0.9375,-0.2866211,-0.1328125,1.027832,0.2177734,-0.015625,-0.4282227
720,55.0625,55.125,2.6875,-0.3105469,-0.05517578,0.9448242,0.2177734,-0.015625,-0.4282227
721,58.3125,40.25,1.125,-0.3740234,-0.04003906,0.9487305,0.2177734,-0.015625,-0.4282227
722,59.625,27.5625,-0.3125,-0.4658203,-0.04003906,0.9326172,0.2124023,-0.0234375,-0.4306641
723,51.5625,21.625,0,-0.5253906,-0.02050781,1,0.2124023,-0.0234375,-0.4306641
724,41.5,20.625,0.875,-0.5253906,-0.03222656,1.007813,0.2124023,-0.0234375,-0.4306641
725,30.3125,20.75,1.375,-0.5175781,-0.06298828,0.9960938,0.2255859,-0.02832031,-0.4467773
726,13.8125,19.8125,1.625,-0.5136719,-0.1054688,0.9604492,0.2255859,-0.02832031,-0.4467773
727,-2,15,2.75,-0.4975586,-0.07470703,0.9487305,0.2255859,-0.02832031,-0.4467773
728,-15.0625,9.375,3.875,-0.5053711,-0.07080078,1.003906,0.2255859,-0.02832031,-0.4467773
729,-21.75,6.0625,4.625,-0.4975586,-0.05908203,1.011719,0.2202148,-0.02587891,-0.4516602
730,-22.375,7.125,5.625,-0.4736328,-0.02050781,1.059082,0.2202148,-0.02587891,-0.4516602
731,-15.4375,8.875,6.5,-0.4697266,-0.03222656,1.079102,0.2202148,-0.02587891,-0.4516602
732,-1.875,15.1875,7.625,-0.4619141,-0.03222656,1.169922,0.2202148,-0.01025391,-0.4545898
733,12.125,21.9375,10,-0.5092773,-0.004882813,1.102539,0.2202148,-0.01025391,-0.4545898
734,19,19.75,8.875,-0.4936523,0.03710938,1.083008,0.2202148,-0.01025391,-0.4545898
735,20.6875,16.4375,6.75,-0.4936523,0.02539063,1.106934,0.2285156,-0.01318359,-0.4545898
736,21.0625,18.375,7.1875,-0.4853516,0.02148438,1.114746,0.2285156,-0.01318359,-0.4545898
737,21.5,20.375,8.75,-0.5053711,0.001953125,1.059082,0.2285156,-0.01318359,-0.4545898
738,18.4375,16.8125,7.375,-0.4936523,0.02929688,1.05127,0.2285156,-0.015625,-0.4594727
739,9,11,5.1875,-0.4736328,0.06396484,1,0.2285156,-0.015625,-0.4594727
740,-0.6875,6.3125,4.25,-0.4257813,0.02148438,1.023926,0.2285156,-0.015625,-0.4594727
741,-8.5625,3.9375,6.75,-0.3901367,-0.008789063,1.031738,0.2285156,-0.015625,-0.4594727
742,-18,-0.5,10.125,-0.4697266,0.02539063,1.027832,0.230957,-0.02050781,-0.4516602
743,-28.875,-1.6875,11.875,-0.4853516,0.01367188,1.023926,0.230957,-0.02050781,-0.4516602
744,-41.625,-5,8.5,-0.4697266,0.06396484,1.007813,0.230957,-0.02050781,-0.4516602
745,-57.5625,-9,1.4375,-0.4697266,0.05224609,1.007813,0.2387695,-0.0078125,-0.4570313
746,-64.0625,-10.75,0,-0.4736328,0.06396484,1.083008,0.2387695,-0.0078125,-0.4570313
747,-57.625,-8.75,-1.6875,-0.4379883,0.02929688,1.067383,0.2387695,-0.0078125,-0.4570313
748,-43.6875,-8.75,-2.9375,-0.421875,-0.008789063,1.083008,0.2363281,0.01708984,-0.4492188
749,-26,-9.0625,-4.4375,-0.4458008,-0.04003906,1.059082,0.2363281,0.01708984,-0.4492188
750,-11.4375,-7.1875,-5.3125,-0.4775391,-0.04736328,1.086914,0.2363281,0.01708984,-0.4492188
751,-1.0625,-4,-3.8125,-0.4814453,-0.03613281,1.063477,0.2338867,0.01464844,-0.4335938
752,2.875,-3,-1.375,-0.4775391,-0.05908203,1.023926,0.2338867,0.01464844,-0.4335938
753,-0.75,-2.5625,-3.75,-0.4335938,0.02929688,0.9643555,0.2338867,0.01464844,-0.4335938
754,-12.8125,-5,-10.375,-0.3779297,0.02929688,1,0.2338867,0.01464844,-0.4335938
755,-25.625,-6.5625,-13.8125,-0.3662109,-0.01269531,1.015625,0.2338867,0.01464844,-0.4306641
756,-27.875,-4.9375,-12.5,-0.3779297,-0.06689453,1.075195,0.2338867,0.01464844,-0.4306641
757,-19.25,-0.75,-8.4375,-0.421875,-0.09765625,1.106934,0.2338867,0.01464844,-0.4306641
758,-5.5625,2.5,-4.9375,-0.4179688,-0.1054688,1.09082,0.2470703,0.03271484,-0.4360352
759,11.75,4.8125,-2.25,-0.4335938,-0.07861328,1.059082,0.2470703,0.03271484,-0.4360352
760,28.1875,5.125,-1.375,-0.4775391,-0.05126953,1.023926,0.2470703,0.03271484,-0.4360352
761,39.9375,5.1875,-1.75,-0.4379883,-0.04003906,1.071289,0.2338867,0.02978516,-0.4306641
762,48.25,7.75,-0.3125,-0.4814453,-0.04394531,1.067383,0.2338867,0.02978516,-0.4306641
764,56.9375,11.6875,2.375,-0.4897461,-0.05126953,1.106934,0.2338867,0.02978516,-0.4306641
765,69.125,18.5,2.1875,-0.5053711,-0.02832031,1.122559,0.2338867,0.02246094,-0.4516602
766,92.8125,12.875,10.5625,-0.5888672,-0.3334961,1.284668,0.2338867,0.02246094,-0.4516602
767,137.6875,27.4375,32.625,-0.4575195,-0.2250977,1.098633,0.230957,0.004394531,-0.4438477
768,161.4375,36.1875,37.625,-0.3623047,-0.1171875,0.9804688,0.230957,0.004394531,-0.4438477
769,173.75,29.8125,31.25,-0.3901367,-0.06689453,0.9604492,0.2202148,-0.01025391,-0.4516602
770,175.75,17.0625,19.75,-0.3862305,0.04833984,0.9804688,0.2124023,-0.04101563,-0.4624023
771,173.1875,15.5625,11.8125,-0.3862305,0.04833984,1.043457,0.2124023,-0.04101563,-0.4624023
772,170.9375,23.9375,10.3125,-0.3779297,0.1103516,1.027832,0.1933594,-0.06152344,-0.4755859
773,165.0625,29.8125,11.0625,-0.3979492,0.1064453,0.9365234,0.1777344,-0.09765625,-0.4887695
774,152.1875,25.6875,13.25,-0.4018555,0.1953125,0.8774414,0.1777344,-0.09765625,-0.4887695
775,132.4375,17.125,16.1875,-0.3740234,0.203125,0.8696289,0.1694336,-0.1103516,-0.4990234
776,107.9375,12.8125,17.75,-0.3540039,0.1953125,0.8891602,0.1694336,-0.1103516,-0.4990234
777,84.0625,15.0625,18.625,-0.3583984,0.21875,0.8535156,0.1455078,-0.1333008,-0.5151367
778,63.625,15.1875,20.5625,-0.3662109,0.1992188,0.8378906,0.121582,-0.1435547,-0.5151367
779,48.75,13.1875,23.8125,-0.3422852,0.237793,0.9052734,0.121582,-0.1435547,-0.5151367
780,41.3125,12.875,28.5625,-0.3623047,0.2109375,0.9091797,0.08691406,-0.1435547,-0.5361328
781,43.125,14.1875,32.4375,-0.3422852,0.1875,0.9526367,0.08691406,-0.1435547,-0.5361328
782,52.875,15.3125,35.25,-0.3623047,0.1875,0.972168,0.0546875,-0.1411133,-0.5546875
783,70.5,30.875,26.5625,-1.034668,0.1914063,1.063477,0.01757813,-0.1435547,-0.5673828
784,109.6875,25.5,42.9375,-1.0625,0.222168,0.9760742,0.01757813,-0.1435547,-0.5673828
785,151.25,10.5625,53.9375,-0.9311523,0.3344727,1.019531,0.02783203,-0.1713867,-0.5727539
786,171.5,-1,23.5,-0.5771484,0.5507813,1.035645,0.006835938,-0.2021484,-0.5703125
787,186.375,10.4375,-10.3125,-0.3779297,0.4926758,1.023926,0.006835938,-0.2021484,-0.5703125
788,190.875,23.6875,-32,-0.2387695,0.4428711,0.9760742,-0.008789063,-0.2431641,-0.5703125
789,181.75,28.5625,-42.625,-0.2827148,0.3730469,0.9208984,-0.008789063,-0.2431641,-0.5703125
790,166,30.3125,-24.4375,-0.4018555,0.3383789,0.8378906,-0.04638672,-0.2841797,-0.5625
791,137.875,21.5,-11.75,-0.5415039,0.4775391,0.7470703,-0.05419922,-0.3276367,-0.5625
792,103.0625,17.6875,-20.5,-0.640625,0.4428711,0.7509766,-0.05419922,-0.3276367,-0.5625
793,97,8.9375,-46.5,-0.871582,0.1025391,0.7944336,-0.06738281,-0.355957,-0.5625
794,87.6875,-30.3125,-52.25,-0.3500977,-0.7470703,0.2807617,-0.06738281,-0.355957,-0.5625
795,25.4375,49.9375,-37.3125,-0.1630859,0.6010742,1.249023,-0.09667969,-0.394043,-0.5546875
796,-47.0625,58.1875,-3.5625,-0.597168,0.1645508,0.5732422,-0.1157227,-0.4326172,-0.5625
797,-104.25,16,7.8125,-0.4575195,0.512207,0.300293,-0.1157227,-0.4326172,-0.5625
798,-118.6875,-25.9375,-7.125,-0.2788086,0.8598633,0.3041992,-0.1210938,-0.4609375,-0.5859375
799,-77.8125,-44,-18.3125,-0.4379883,0.8251953,1.39502,-0.1074219,-0.453125,-0.5859375
800,34.625,-12.875,-13.75,-0.4936523,0.8369141,1.478027,-0.1074219,-0.453125,-0.5859375
801,100.875,4,-38.5625,-0.6645508,0.7670898,0.8222656,-0.09667969,-0.4580078,-0.5888672
802,92,-8.625,-52,-0.6450195,0.8251953,0.5927734,-0.09667969,-0.4580078,-0.5888672
803,70.875,-12.5,-78.9375,-0.7719727,0.7631836,0.7270508,-0.1049805,-0.4887695,-0.59375
804,48.1875,-5.6875,-91.125,-0.5810547,0.7749023,0.7314453,-0.08349609,-0.5068359,-0.6020508
805,23,-8.1875,-108.6875,-0.6010742,0.7128906,0.7866211,-0.08349609,-0.5068359,-0.6020508
806,5.1875,-12.25,-108.3125,-0.5415039,0.4233398,0.8579102,-0.08642578,-0.5170898,-0.5888672
807,-4.4375,-9.125,-89.625,-0.5136719,0.2841797,0.8300781,-0.08642578,-0.5170898,-0.5888672
808,-14.9375,-11.4375,-62.9375,-0.5214844,0.2612305,0.8061523,-0.09179688,-0.5375977,-0.5805664
809,-24.25,-13.0625,-35.5,-0.4619141,0.3422852,0.7749023,-0.09667969,-0.5195313,-0.5834961
810,-27.875,-17.375,-15.875,-0.3740234,0.3574219,0.8300781,-0.09667969,-0.5195313,-0.5834961
811,-31.625,-28.0625,5.25,-0.5532227,0.3188477,0.8261719,-0.1049805,-0.534668,-0.5859375
812,-49.375,-33,22.625,-0.6367188,0.3574219,0.8535156,-0.112793,-0.534668,-0.5834961
813,-72.9375,-44.625,30.625,-0.6450195,0.4775391,0.7470703,-0.112793,-0.534668,-0.5834961
814,-93.9375,-56.5625,35.0625,-0.597168,0.5200195,0.7905273,-0.1103516,-0.5297852,-0.5888672
815,-113.75,-53.9375,36.875,-0.5053711,0.4658203,0.8930664,-0.1103516,-0.5297852,-0.5888672
816,-127.3125,-53.75,40.4375,-0.4736328,0.4697266,0.9326172,-0.1181641,-0.4887695,-0.578125
817,-146.1875,-57.25,45.3125,-0.421875,0.4462891,0.9804688,-0.1318359,-0.4506836,-0.5673828
818,-168.9375,-53.625,49.0625,-0.4736328,0.4580078,1.027832,-0.1318359,-0.4506836,-0.5673828
819,-191.1875,-44.75,50.5625,-0.5332031,0.3964844,1.043457,-0.1611328,-0.4042969,-0.5703125
820,-211.4375,-41.3125,47.0625,-0.5649414,0.3847656,0.9248047,-0.1611328,-0.4042969,-0.5703125
821,-213.125,-37.75,29,-0.5415039,0.4116211,0.940918,-0.1450195,-0.3583984,-0.5727539
822,-191.4375,-24.875,22.625,-0.5014648,0.1953125,0.9643555,-0.1103516,-0.2890625,-0.5546875
823,-171.4375,-2.6875,23.125,-0.3779297,0.1220703,0.9287109,-0.1103516,-0.2890625,-0.5546875
824,-174.375,6.625,22.0625,-0.3105469,0.09472656,0.9013672,-0.06738281,-0.2177734,-0.5571289
825,-197.625,-1.6875,17.625,-0.2666016,0.07568359,0.9013672,-0.02197266,-0.1665039,-0.5439453
826,-214.9375,-21,6.5625,-0.2705078,0.08740234,0.9326172,-0.02197266,-0.1665039,-0.5439453
827,-194.1875,-38.125,1.5,-0.3623047,-0.02832031,1.083008,0.006835938,-0.1074219,-0.5332031
829,-133.3125,-42.25,1.9375,-0.4140625,-0.08642578,1.102539,0.006835938,-0.1074219,-0.5332031
830,-81.1875,-41.875,6.5,-0.5092773,-0.1713867,1.027832,0.02539063,-0.06152344,-0.5283203
831,-69.6875,-41.4375,11,-0.4736328,-0.109375,0.9248047,0.06005859,-0.03613281,-0.5229492
832,-78,-45.4375,6.4375,-0.5014648,-0.03613281,0.8222656,0.06005859,-0.03613281,-0.5229492
833,-96.0625,-28.9375,0.9375,-0.5332031,-0.1054688,0.8378906,0.06542969,-0.01806641,-0.5175781
834,-116.4375,1.3125,-1.3125,-0.4775391,-0.1401367,0.9013672,0.06542969,-0.01806641,-0.5175781
835,-140.3125,22,-6.4375,-0.3540039,-0.125,0.8852539,0.1030273,-0.002929688,-0.5151367
836,-140,13.125,-13.4375,-0.3344727,-0.2021484,1.011719,0.1269531,0.01464844,-0.512207
837,-100.9375,-4.9375,-10.375,-0.3261719,-0.2792969,1.169922,0.1269531,0.01464844,-0.512207
838,-42.4375,-7.6875,-4.375,-0.3422852,-0.2368164,1.25293,0.1347656,0.02246094,-0.512207
839,9.5,2.0625,3.0625,-0.4296875,-0.2060547,1.217285,0.1455078,0.03515625,-0.5097656
840,35.8125,3.375,4.25,-0.4658203,-0.1015625,1.106934,0.1455078,0.03515625,-0.5097656
841,44.375,0.4375,0.125,-0.4296875,-0.03613281,1.083008,0.1376953,0.04541016,-0.5175781
842,59.875,8.375,3.5,-0.3979492,0.02148438,1.197754,0.1376953,0.04541016,-0.5175781
843,75.1875,17.625,-5.875,-0.4619141,0.08349609,1.177734,0.1376953,0.04296875,-0.5283203
844,91.3125,9.0625,-8.375,-0.4814453,0.07177734,1.237305,0.121582,0.02734375,-0.5385742
845,103.125,-3.375,-7.5625,-0.625,0.01367188,1.371582,0.121582,0.02734375,-0.5385742
846,90,-13.9375,-10.4375,-0.7285156,0.1333008,1.249023,0.1108398,0.01708984,-0.5385742
847,65.375,-29.5625,-24.8125,-0.7163086,0.2148438,1.122559,0.1108398,0.01708984,-0.5385742
848,50.875,-43.5625,-29.75,-0.6088867,0.203125,1.217285,0.09228516,0,-0.5546875
849,43.375,-46.25,-19.4375,-0.5053711,0.1142578,1.256836,0.08691406,-0.005371094,-0.5571289
850,28.6875,-48.25,-5.875,-0.4536133,0.1103516,1.280762,0.08691406,-0.005371094,-0.5571289
851,12.6875,-55.625,3.1875,-0.5292969,0.09863281,1.276855,0.06542969,-0.005371094,-0.5571289
852,3.125,-65.9375,22.1875,-0.5175781,0.1723633,1.422852,0.046875,-0.015625,-0.5649414
853,-7.3125,-76.0625,16.8125,-0.7084961,0.1259766,1.36377,0.046875,-0.015625,-0.5649414
854,-31.0625,-84.0625,16.875,-0.6884766,0.1645508,1.438965,0.03320313,-0.02050781,-0.5673828
855,-66.875,-98.375,10.1875,-0.6088867,0.2148438,1.34375,0.03320313,-0.02050781,-0.5673828
856,-93.5,-109.6875,0.25,-0.5014648,0.1606445,1.320313,0.02294922,-0.03076172,-0.5727539
857,-121.5625,-122.125,-11.3125,-0.1630859,0.1259766,1.221191,0.01464844,-0.01806641,-0.5727539
858,-151.1875,-124.625,4.625,-0.3422852,-0.144043,1.446777,0.01464844,-0.01806641,-0.5727539
859,-117.5625,-123.8125,17.875,-0.1630859,-0.04003906,1.34375,0.001464844,0.01708984,-0.5517578
860,-109.6875,-134.5,22.5,-0.1948242,-0.1171875,1.229492,0.001464844,0.01708984,-0.5517578
861,-106.625,-143.75,31.5,-0.1870117,-0.1635742,1.29248,0.02539063,0.03515625,-0.5439453
862,-108.0625,-148.5625,40.125,-0.2070313,-0.09375,1.197754,0.02001953,0.06591797,-0.5415039
863,-101.3125,-141.875,46.375,-0.2148438,-0.04003906,1.288574,0.02001953,0.06591797,-0.5415039
864,-75.0625,-107.625,52.4375,-0.2270508,-0.02050781,1.40332,0.02294922,0.07617188,-0.5229492
865,-45.625,-82.25,54.8125,-0.230957,0.009765625,1.213379,0.04394531,0.1015625,-0.5229492
866,-35.875,-83.1875,51.25,-0.1235352,0.02539063,1.11084,0.04394531,0.1015625,-0.5229492
867,-28.25,-79.625,48.0625,-0.07958984,-0.09375,1.14209,0.03613281,0.09375,-0.5200195
868,-10.25,-68.625,47.25,-0.08740234,-0.05517578,1.138184,0.03613281,0.09375,-0.5200195
869,3.9375,-59.75,47,-0.1591797,-0.06298828,1.055176,0.04931641,0.09130859,-0.5151367
870,12,-55.9375,44.25,-0.1074219,-0.04736328,1.019531,0.04394531,0.1118164,-0.5175781
871,15.375,-56,42,-0.06347656,-0.04736328,0.9760742,0.04394531,0.1118164,-0.5175781
872,19.9375,-53.0625,42.9375,0.01123047,-0.07080078,1.027832,0.04394531,0.09130859,-0.5175781
873,30.125,-33.375,40.875,0.01953125,0.005859375,1.067383,0.04394531,0.09130859,-0.5175781
874,46.875,-25.3125,31.1875,-0.02001953,0.08349609,0.9052734,0.03613281,0.1069336,-0.5253906
875,57.5625,-23.5,22.3125,-0.1035156,0.07568359,0.8144531,0.03320313,0.09912109,-0.5332031
876,60.5,-13.125,13.8125,-0.1948242,0.09472656,0.7905273,0.03320313,0.09912109,-0.5332031
877,65.3125,-3.1875,7.375,-0.203125,0.1142578,0.7587891,0.03076172,0.09912109,-0.5332031
878,73.5,0.0625,0.9375,-0.1552734,0.1259766,0.7192383,0.03076172,0.08642578,-0.5439453
879,76.375,3.125,-0.75,-0.09570313,0.09863281,0.6362305,0.03076172,0.08642578,-0.5439453
880,77.125,7.6875,-2,-0.06347656,0.1064453,0.6049805,0.01757813,0.09130859,-0.5493164
881,89,20.375,-4.5,-0.09960938,0.1914063,0.6206055,0.01757813,0.09130859,-0.5493164
882,112.8125,35.125,-6.625,-0.1831055,0.237793,0.6679688,0.01464844,0.07617188,-0.5571289
883,160.5625,21.3125,-14.5,-0.2387695,0.3964844,0.6918945,-0.02734375,0.03271484,-0.5805664
884,150.5625,14.875,-25.125,-0.2509766,0.3808594,0.7270508,-0.02734375,0.03271484,-0.5805664
885,83.9375,-10.5,-42.6875,-0.1035156,0.2456055,0.7431641,-0.0703125,-0.01806641,-0.6098633
886,26.3125,-9.8125,-30.375,0.0234375,0.05615234,0.8496094,-0.0703125,-0.01806641,-0.6098633
887,25.1875,-6.6875,-14.625,0.1191406,0.05615234,0.6958008,-0.0703125,-0.01318359,-0.6044922
888,8.375,14.8125,-5.0625,0.03125,-0.05517578,0.612793,-0.02734375,0.02246094,-0.59375
889,18.625,10.0625,7.1875,-0.06787109,0.1723633,0.6879883,-0.02734375,0.02246094,-0.59375
890,38.3125,-4.4375,2.0625,-0.1513672,0.1103516,0.7036133,0.07324219,0.01953125,-0.5703125
891,-2.1875,-7.5625,-1.0625,-0.2148438,0.07568359,0.9365234,0.1586914,0.01464844,-0.5595703
892,-31.3125,-5.6875,-1.6875,-0.09570313,0.1142578,0.956543,0.1586914,0.01464844,-0.5595703
894,-17.875,-8,-3.1875,-0.02001953,0.02929688,0.9487305,0.2094727,0.01953125,-0.5361328
895,-14.125,-6.5,2.5625,-0.03173828,-0.01660156,0.9169922,0.2094727,0.01953125,-0.5361328
896,-29.5,-3.1875,13.4375,-0.01171875,-0.1015625,0.9013672,0.2416992,0.01220703,-0.5415039
897,-43.25,-6.875,20.3125,0.03125,-0.03222656,0.8457031,0.2495117,0.01708984,-0.5463867
898,-50.1875,-18.8125,21.75,-0.05566406,-0.1362305,0.9365234,0.2495117,0.01708984,-0.5463867
899,-75.5,-18.9375,20.625,-0.3261719,-0.1479492,0.8852539,0.2924805,0.01953125,-0.5415039
900,-75.8125,-7.8125,13.125,-0.4101563,-0.0009765625,0.8657227,0.2924805,0.01953125,-0.5415039
901,-73.1875,4.9375,11.0625,-0.4335938,-0.02441406,0.9960938,0.3164063,0.01464844,-0.5229492
902,-59.75,19.125,12.875,-0.4018555,-0.09375,1.059082,0.3242188,0.01464844,-0.5361328
903,-66.8125,31.625,18.3125,-0.2788086,-0.08984375,1.047363,0.3242188,0.01464844,-0.5361328
904,-69.125,36.5625,21.9375,-0.2348633,-0.1054688,1.094727,0.3486328,0.01464844,-0.5200195
905,-56.875,40.625,24.4375,-0.1870117,-0.109375,1.173828,0.3457031,0.01464844,-0.5200195
906,-53.1875,45.3125,20,-0.1196289,-0.04003906,1.138184,0.3457031,0.01464844,-0.5200195
907,-54,44.0625,15.625,-0.1313477,-0.05908203,1.158203,0.3618164,0.01708984,-0.5151367
908,-60.625,41.0625,14.0625,-0.1274414,-0.06689453,1.162109,0.3618164,0.01708984,-0.5151367
909,-71.8125,36.0625,10.625,-0.2070313,-0.09375,1.264648,0.3564453,0.02490234,-0.496582
910,-80.8125,32,6.6875,-0.2387695,-0.09765625,1.328125,0.3696289,0.03759766,-0.4990234
911,-78.0625,33.125,4,-0.2944336,-0.05517578,1.379395,0.3696289,0.03759766,-0.4990234
912,-66.9375,35,-3.9375,-0.2983398,-0.05517578,1.415039,0.3779297,0.05322266,-0.4833984
913,-50.3125,29.4375,-13.4375,-0.3344727,-0.04394531,1.40332,0.3779297,0.05322266,-0.4833984
914,-29.625,34.8125,-16.5625,-0.3979492,-0.01660156,1.407227,0.3618164,0.06054688,-0.4780273
915,-19.25,48.5,-14.0625,-0.4936523,-0.01660156,1.411133,0.3564453,0.06835938,-0.5019531
916,-13.125,60.375,2.6875,-0.5014648,0.02148438,1.351563,0.3564453,0.06835938,-0.5019531
917,-17,52.9375,4.4375,-0.1352539,0.222168,1.209473,0.3139648,0.07080078,-0.5073242
918,-25.75,31.125,-7.6875,-0.04003906,0.02539063,1.249023,0.2978516,0.08105469,-0.496582
919,-43.9375,16.9375,-10.3125,0.02734375,-0.1557617,1.355957,0.2978516,0.08105469,-0.496582
920,-55,12.25,-0.4375,-0.00390625,-0.2368164,1.415039,0.2895508,0.08886719,-0.4990234
921,-45.75,9.4375,7.4375,-0.09570313,-0.144043,1.418945,0.2895508,0.08886719,-0.4990234
922,-32.5625,5.8125,7.5625,-0.1870117,-0.06689453,1.415039,0.2978516,0.09667969,-0.4941406
923,-23.875,3.8125,4.75,-0.2788086,-0.05908203,1.45459,0.300293,0.1015625,-0.4912109
924,-13.3125,4.3125,2.875,-0.2548828,-0.08642578,1.462402,0.300293,0.1015625,-0.4912109
925,-1.4375,7.0625,-3.5,-0.2509766,-0.07861328,1.462402,0.3032227,0.1118164,-0.4858398
926,11.5,9.75,-13.4375,-0.2587891,-0.08984375,1.399414,0.3032227,0.1118164,-0.4858398
927,20.125,8.6875,-13.875,-0.2866211,-0.07861328,1.229492,0.2924805,0.1118164,-0.4941406
928,10.1875,4.625,-5.0625,-0.3027344,-0.02050781,1.11084,0.2871094,0.1171875,-0.4990234
929,-15.125,-2.9375,-0.375,-0.2270508,-0.0009765625,1.067383,0.2871094,0.1171875,-0.4990234
930,-34.3125,-10.3125,-1.1875,-0.1713867,-0.01660156,1.102539,0.2763672,0.1245117,-0.4990234
931,-43.375,-15.625,-8.75,-0.1196289,-0.02441406,1.130371,0.2841797,0.1245117,-0.4941406
932,-51.5625,-19.25,-14.5,-0.1513672,-0.01269531,1.162109,0.2841797,0.1245117,-0.4941406
933,-57.1875,-17.5625,-16.375,-0.1791992,-0.1054688,1.197754,0.2871094,0.1274414,-0.4941406
934,-52,-15.5,-15.1875,-0.190918,-0.1362305,1.209473,0.2871094,0.1274414,-0.4941406
935,-43.875,-15,-14.5625,-0.1992188,-0.1479492,1.173828,0.2924805,0.1401367,-0.4887695
936,-46.75,-13.6875,-14.5625,-0.230957,-0.1557617,1.106934,0.2871094,0.1376953,-0.4858398
937,-53.75,-15.0625,-10.375,-0.2666016,-0.1713867,0.984375,0.2871094,0.1376953,-0.4858398
938,-59.5625,-23.3125,-8.625,-0.2905273,-0.1557617,0.9960938,0.2817383,0.1450195,-0.4858398
939,-59.4375,-26.9375,-8.5625,-0.2666016,-0.1362305,1.059082,0.2817383,0.1450195,-0.4858398
940,-65.5,-27,-11.75,-0.2705078,-0.175293,0.9682617,0.300293,0.1503906,-0.4858398
941,-73.375,-30.5,-12.25,-0.2587891,-0.2138672,0.9526367,0.2949219,0.1552734,-0.4780273
942,-75.6875,-35.9375,-12.5625,-0.230957,-0.2485352,0.9682617,0.2949219,0.1552734,-0.4780273
943,-77.4375,-38.625,-6.6875,-0.1948242,-0.2714844,0.956543,0.300293,0.1708984,-0.4755859
944,-80.4375,-35.875,2.25,-0.1831055,-0.2910156,0.9208984,0.2841797,0.1782227,-0.4570313
945,-78.6875,-30.625,10.0625,-0.1430664,-0.3178711,0.9604492,0.2841797,0.1782227,-0.4570313
946,-68.3125,-18.6875,21.25,-0.1074219,-0.3530273,0.8891602,0.2949219,0.1811523,-0.4648438
947,-62.75,-11.9375,28.5,-0.1474609,-0.2910156,0.9487305,0.2949219,0.1811523,-0.4648438
948,-64.5625,-4.8125,28.0625,-0.2509766,-0.3066406,0.9365234,0.3032227,0.1811523,-0.4570313
949,-70.75,1.5625,27.125,-0.3027344,-0.2602539,0.9643555,0.3139648,0.1782227,-0.4384766
950,-80.9375,-1.25,19.625,-0.1391602,-0.175293,0.8535156,0.3139648,0.1782227,-0.4384766
951,-92.6875,-4.625,7.3125,-0.08740234,-0.2290039,0.8417969,0.3325195,0.1679688,-0.4306641
952,-88.0625,0.625,5.3125,-0.1113281,-0.2949219,0.8774414,0.3325195,0.1679688,-0.4306641
953,-59.3125,4.4375,6.9375,-0.1430664,-0.3837891,0.9804688,0.3564453,0.1987305,-0.4174805
954,-26.3125,6.3125,10.3125,-0.190918,-0.3491211,1.063477,0.3510742,0.1835938,-0.4228516
955,-7.1875,11.8125,11.8125,-0.190918,-0.2792969,1.031738,0.3510742,0.1835938,-0.4228516
956,0.0625,18.625,8,-0.2270508,-0.2250977,0.984375,0.375,0.1811523,-0.4150391
957,7.8125,16.5,2.125,-0.230957,-0.2021484,0.9526367,0.3671875,0.1811523,-0.409668
959,23.1875,10.25,-3.625,-0.2270508,-0.2216797,0.956543,0.3671875,0.1811523,-0.409668
960,39.25,1.6875,-7.125,-0.2148438,-0.2368164,0.940918,0.3618164,0.1835938,-0.4018555
961,57.0625,-8.25,-7.625,-0.246582,-0.2675781,0.9760742,0.3618164,0.1835938,-0.4018555
962,75.25,-14.1875,-8.125,-0.21875,-0.2329102,1.007813,0.3564453,0.1835938,-0.4228516
963,80.5625,-14,-11.8125,-0.1430664,-0.1518555,1.031738,0.3540039,0.1708984,-0.4174805
964,73.5,-10.125,-13.25,-0.175293,-0.1479492,1.039551,0.3540039,0.1708984,-0.4174805
965,70.3125,-2.75,-20.625,-0.1235352,-0.1289063,1.11084,0.3540039,0.152832,-0.4306641
966,81.25,8.3125,-26.3125,-0.2148438,-0.2485352,1.20166,0.3540039,0.152832,-0.4306641
967,101.125,17.5,-16.5625,-0.2270508,-0.2641602,1.233398,0.3432617,0.152832,-0.4384766
968,120.375,21.0625,-9.0625,-0.2426758,-0.2524414,1.158203,0.3325195,0.1450195,-0.4545898
969,118.1875,13.875,-6.6875,-0.2148438,-0.2250977,1.059082,0.3325195,0.1450195,-0.4545898
970,100.5625,5.8125,-7.375,-0.1552734,-0.1479492,1.079102,0.3349609,0.1323242,-0.4755859
971,81.375,2.1875,-10.9375,-0.1474609,-0.1328125,1.122559,0.3242188,0.1274414,-0.4648438
972,72.9375,-1.8125,-14.3125,-0.1630859,-0.125,1.130371,0.3242188,0.1274414,-0.4648438
973,76.0625,-7,-17.5625,-0.1669922,-0.1401367,1.075195,0.3085938,0.1245117,-0.480957
974,80.5625,-8.0625,-21.5625,-0.1152344,-0.1132813,1.138184,0.3085938,0.1245117,-0.480957
975,83.9375,-5.4375,-26,-0.1352539,-0.125,1.154297,0.2895508,0.1220703,-0.4780273
976,80.0625,-1,-24.875,-0.1474609,-0.1362305,1.122559,0.2739258,0.1142578,-0.5043945
977,73.75,2.625,-16.5625,-0.1313477,-0.1557617,1.106934,0.2739258,0.1142578,-0.5043945
978,71.5625,3.4375,-8.875,-0.1196289,-0.09375,1.083008,0.2495117,0.1245117,-0.5097656
979,70.25,6.4375,-6.3125,-0.1791992,-0.06298828,1.122559,0.2495117,0.1245117,-0.5097656
980,62.375,9.125,1.1875,-0.2109375,-0.01269531,1.094727,0.2416992,0.1274414,-0.5200195
981,54.5,10.9375,7.0625,-0.2148438,-0.05908203,1.098633,0.230957,0.1196289,-0.5200195
982,52.0625,14.6875,8.6875,-0.1713867,-0.04003906,1.158203,0.230957,0.1196289,-0.5200195
983,52.625,17.375,10.6875,-0.2626953,-0.04736328,1.126465,0.2070313,0.1142578,-0.5229492
984,50.0625,16.875,11.9375,-0.1591797,-0.02441406,1.083008,0.2041016,0.1015625,-0.5229492
985,42.3125,15,7.75,-0.1274414,0.02929688,1.043457,0.2041016,0.1015625,-0.5229492
986,35.375,10.6875,1.0625,-0.1074219,0.02148438,1.071289,0.190918,0.1040039,-0.5332031
987,35.25,7.9375,-3.4375,-0.1274414,-0.01269531,1.177734,0.190918,0.1040039,-0.5332031
988,41.75,10.8125,-1.6875,-0.1313477,-0.04003906,1.150391,0.190918,0.08886719,-0.5493164
989,50.8125,13.5,4.5,-0.1831055,-0.06298828,1.166016,0.1801758,0.09375,-0.5415039
990,56.5,14.4375,11.25,-0.1630859,-0.03222656,1.126465,0.1801758,0.09375,-0.5415039
991,51.3125,14.25,15.125,-0.1669922,-0.02832031,1.071289,0.1748047,0.07617188,-0.5517578
992,36.8125,13.125,16.4375,-0.1513672,-0.02441406,1.122559,0.1748047,0.07617188,-0.5517578
993,17.125,14.9375,11.4375,-0.1630859,-0.008789063,1.063477,0.1640625,0.07080078,-0.5546875
994,-2.125,18.0625,10.625,-0.246582,0.07958984,1.063477,0.1669922,0.06591797,-0.5595703
995,-24.8125,16.5,17.5625,-0.3461914,0.07568359,1.027832,0.1669922,0.06591797,-0.5595703
996,-51.3125,12.1875,30.4375,-0.4057617,0.1259766,1.031738,0.1831055,0.06347656,-0.5493164
997,-72.25,6.6875,39.1875,-0.4179688,0.1333008,1.05127,0.1933594,0.06591797,-0.5517578
998,-87.375,0.125,41.3125,-0.3901367,0.04833984,1.015625,0.1933594,0.06591797,-0.5517578
999,-108.0625,-6.5,44.0625,-0.3583984,0.009765625,1.003906,0.1987305,0.08105469,-0.5385742
1000,-137.1875,-9.375,38.75,-0.3862305,0.04101563,1.031738,0.1987305,0.08105469,-0.5385742
1001,-161.0625,-10.25,33.125,-0.3701172,0.05615234,1.086914,0.2202148,0.09912109,-0.5151367
1002,-163.3125,-17.6875,23.6875,-0.3183594,0.02929688,1.09082,0.2363281,0.1040039,-0.5073242
1003,-148.9375,-25,16.75,-0.2148438,-0.04736328,1.162109,0.2363281,0.1040039,-0.5073242
1004,-124.5,-21.3125,12.5,-0.07177734,-0.175293,1.20166,0.2631836,0.1274414,-0.4833984
1005,-84.8125,-14.25,11.5,0.05908203,-0.3295898,1.225098,0.2631836,0.1274414,-0.4833984
1006,-33.25,-7.6875,13.5625,0.1030273,-0.4995117,1.296387,0.2739258,0.1323242,-0.4755859
1007,16.1875,6.3125,20.1875,0.09912109,-0.5419922,1.264648,0.2895508,0.1347656,-0.4516602
1008,52.125,16.625,28.6875,0.01953125,-0.4804688,1.213379,0.2895508,0.1347656,-0.4516602
1009,74.4375,18.0625,34.4375,-0.1474609,-0.3491211,1.173828,0.2871094,0.1376953,-0.4702148
1010,87.4375,14.25,36.125,-0.2348633,-0.2216797,1.118652,0.2763672,0.1298828,-0.4941406
1011,88.25,14.0625,31.6875,-0.8837891,0.1298828,1.166016,0.2763672,0.1298828,-0.4941406
1012,71.625,19.875,24,-0.3500977,0.009765625,1.043457,0.2578125,0.1274414,-0.5043945
1013,71.625,18.4375,14.5,-0.3583984,0.005859375,1.122559,0.2578125,0.1274414,-0.5043945
1014,71.3125,18.1875,8.8125,-0.2866211,0.04833984,1.106934,0.2685547,0.1142578,-0.5097656
1015,65,16.5625,3.0625,-0.203125,0.06396484,1.083008,0.2685547,0.1015625,-0.5073242
1016,54.3125,8.1875,-0.5625,-0.1669922,0.02929688,1.047363,0.2685547,0.1015625,-0.5073242
1017,38.5,-0.375,-3.625,-0.203125,0.001953125,1.039551,0.2578125,0.09667969,-0.5175781
1018,21.125,-7.125,-6.1875,-0.2070313,0.06396484,1.003906,0.2578125,0.09667969,-0.5175781
1019,0.0625,-7.625,-4.25,-0.2744141,0.06005859,1.067383,0.2524414,0.09912109,-0.5151367
1020,-21.625,-3.625,-1.1875,-0.2626953,0.06396484,1.122559,0.2685547,0.09912109,-0.5253906
1021,-41.5,-3.375,-0.3125,-0.2666016,0.03320313,1.05127,0.2685547,0.09912109,-0.5253906
1022,-64.6875,-5.6875,5,-0.2587891,0.001953125,1.067383,0.2578125,0.1040039,-0.5175781
1024,-76.875,-2.4375,8.5,-0.203125,-0.06689453,1.086914,0.2548828,0.1069336,-0.5097656
1025,-73.5,-3.625,10.9375,-0.2387695,-0.09765625,1.106934,0.2548828,0.1069336,-0.5097656
1026,-63,-4.3125,12.0625,-0.1992188,-0.109375,1.102539,0.2739258,0.1142578,-0.496582
1027,-52.875,-4.1875,11.5625,-0.2070313,-0.109375,1.138184,0.2739258,0.1142578,-0.496582
1028,-43.125,-4.625,10.3125,-0.2148438,-0.1518555,1.14209,0.2739258,0.1298828,-0.5019531
1029,-35.875,-1.8125,8.75,-0.2148438,-0.1518555,1.126465,0.2871094,0.1347656,-0.4912109
1030,-30.9375,0.5625,7.75,-0.1870117,-0.1401367,1.083008,0.2871094,0.1347656,-0.4912109
1031,-24.625,0.125,5.75,-0.2148438,-0.1635742,1.079102,0.2871094,0.1376953,-0.4755859
1032,-15.125,-0.625,0.9375,-0.1713867,-0.1674805,1.086914,0.2871094,0.1376953,-0.4755859
1033,2.75,1.625,-6.6875,-0.1474609,-0.1943359,1.185547,0.2871094,0.1376953,-0.4755859
1034,22.75,3.4375,-27.0625,-0.09960938,-0.01269531,1.083008,0.2924805,0.1323242,-0.4780273
1035,27.8125,4.6875,-56.25,-0.1831055,-0.04394531,1.122559,0.2924805,0.1323242,-0.4780273
1036,41.8125,-1.75,-72.125,-0.3144531,-0.144043,1.138184,0.2924805,0.1323242,-0.4780273
1037,56.1875,-2.9375,-67.125,-0.3540039,-0.2329102,1.181641,0.2841797,0.1298828,-0.4858398
1038,57.3125,4.875,-47.0625,-0.2866211,-0.2099609,1.162109,0.2841797,0.1298828,-0.4858398
1039,47.3125,10.75,-20.25,-0.3066406,-0.1674805,1.122559,0.2841797,0.1298828,-0.4858398
1040,29.9375,8.1875,3.4375,-0.3027344,-0.1171875,1.043457,0.2841797,0.1298828,-0.4858398
1041,8.9375,1.5625,14.375,-0.2548828,-0.01660156,1.031738,0.2602539,0.1171875,-0.512207
1042,-5.0625,4.0625,10.9375,-0.1831055,-0.004882813,1.075195,0.2602539,0.1171875,-0.512207
1043,-7.5625,6.9375,1.8125,-0.1791992,0.02148438,1.130371,0.2602539,0.1171875,-0.512207
1044,-4.125,7,-6,-0.2148438,-0.03222656,1.106934,0.2685547,0.1245117,-0.5019531
1045,-2.25,5.375,-8.4375,-0.2270508,-0.06298828,1.098633,0.2685547,0.1245117,-0.5019531
1046,-4.875,4.375,-6.25,-0.2226563,-0.09375,1.11084,0.2685547,0.1245117,-0.5019531
1047,-8.875,4.4375,-4.25,-0.2348633,-0.07080078,1.169922,0.265625,0.1118164,-0.5151367
1048,-8.5,6,-2.75,-0.2705078,-0.08251953,1.134277,0.265625,0.1118164,-0.5151367
1049,-4.1875,5.625,-1.75,-0.2626953,-0.1015625,1.150391,0.265625,0.1118164,-0.5151367
1050,1.25,2.875,-0.1875,-0.246582,-0.109375,1.11084,0.2709961,0.1196289,-0.496582
1051,4.125,1.375,2.75,-0.2426758,-0.1289063,1.11084,0.2709961,0.1196289,-0.496582
1052,3.875,0.5,5.0625,-0.190918,-0.08984375,1.122559,0.2709961,0.1196289,-0.496582
1053,1.9375,1.3125,4.25,-0.1948242,-0.04394531,1.138184,0.2709961,0.1196289,-0.496582
1054,-2.0625,3,1.5625,-0.1948242,-0.02050781,1.130371,0.2602539,0.1171875,-0.5043945
1055,-6.8125,3.6875,-1,-0.1870117,-0.03222656,1.122559,0.2602539,0.1171875,-0.5043945
1056,-11.0625,4.0625,-3.0625,-0.230957,-0.03613281,1.122559,0.2602539,0.1171875,-0.5043945
1057,-14.375,4.875,-4.375,-0.2070313,-0.09375,1.154297,0.2709961,0.1196289,-0.512207
1058,-14.875,5.25,-5.1875,-0.21875,-0.09765625,1.09082,0.2709961,0.1196289,-0.512207
1059,-11.5625,4,-4.1875,-0.246582,-0.1635742,1.138184,0.2709961,0.1196289,-0.512207
1060,-4.125,1.75,-1.3125,-0.2548828,-0.1479492,1.158203,0.2685547,0.1220703,-0.5073242
1061,2.5625,-0.5,1.5,-0.2148438,-0.1362305,1.102539,0.2685547,0.1220703,-0.5073242
1062,4.8125,-2.25,2.6875,-0.2109375,-0.1557617,1.138184,0.2685547,0.1220703,-0.5073242
1063,4.75,-2.625,3.375,-0.1948242,-0.109375,1.146484,0.2739258,0.1171875,-0.5019531
1064,3.875,-2,3.625,-0.1831055,-0.09765625,1.154297,0.2739258,0.1171875,-0.5019531
1065,3.5625,-1.875,3.25,-0.1591797,-0.1210938,1.106934,0.2739258,0.1171875,-0.5019531
1066,3.9375,-2.25,2.375,-0.1870117,-0.109375,1.102539,0.2739258,0.1171875,-0.5019531
1067,4.375,-3.125,1.3125,-0.1831055,-0.1132813,1.122559,0.2739258,0.1142578,-0.5019531
1068,7.3125,-2.8125,1.6875,-0.175293,-0.1132813,1.126465,0.2739258,0.1142578,-0.5019531
1069,11.0625,-3,2.8125,-0.1713867,-0.09375,1.126465,0.2739258,0.1142578,-0.5019531
1070,13,-2.9375,3.875,-0.175293,-0.1015625,1.134277,0.2709961,0.1274414,-0.5073242
1071,12.75,-2.5625,3.75,-0.190918,-0.05908203,1.11084,0.2709961,0.1274414,-0.5073242
1072,10.5625,-1.875,3.0625,-0.1791992,-0.04003906,1.122559,0.2709961,0.1274414,-0.5073242
1073,7.125,-0.375,2.4375,-0.2426758,-0.04003906,1.098633,0.265625,0.1069336,-0.5175781
1074,2.625,0,1.5,-0.2426758,-0.008789063,1.102539,0.265625,0.1069336,-0.5175781
1075,-3.125,0.125,-0.25,-0.2387695,0.009765625,1.098633,0.2685547,0.1196289,-0.5151367
1076,-7.75,0.875,-2.375,-0.2548828,-0.02050781,1.134277,0.2578125,0.1196289,-0.512207
1077,-10.9375,1.5625,-5.0625,-0.2509766,-0.02832031,1.079102,0.2578125,0.1196289,-0.512207
1078,-12.5625,1.6875,-6.375,-0.2548828,-0.07080078,1.067383,0.2631836,0.1040039,-0.5019531
1079,-12.125,1.375,-6.625,-0.2426758,-0.1362305,1.106934,0.2631836,0.1040039,-0.5019531
1080,-8.75,1.6875,-4.1875,-0.246582,-0.125,1.138184,0.2685547,0.1220703,-0.5019531
1081,-3.6875,0,0.0625,-0.21875,-0.144043,1.102539,0.265625,0.1171875,-0.5043945
1082,0.3125,-0.6875,5.0625,-0.2587891,-0.1054688,1.098633,0.265625,0.1171875,-0.5043945
1083,0.25,-1.75,8.8125,-0.230957,-0.1054688,1.047363,0.2578125,0.1118164,-0.496582
1084,-1.9375,-2.3125,10.5625,-0.246582,-0.04394531,1.059082,0.2709961,0.109375,-0.5073242
1085,-5.375,-2.8125,9.625,-0.2148438,-0.04003906,1.098633,0.2709961,0.109375,-0.5073242
1086,-9.4375,-1.5625,6.3125,-0.2109375,0.009765625,1.106934,0.2441406,0.1142578,-0.5073242
1087,-14.125,-0.5625,2.1875,-0.2070313,-0.01660156,1.09082,0.2441406,0.1142578,-0.5073242
1089,-18.375,0.5,-1.1875,-0.1630859,-0.04736328,1.071289,0.2709961,0.1171875,-0.4941406
1090,-19.5,0.5625,-2.6875,-0.2109375,-0.06298828,1.075195,0.2739258,0.1196289,-0.496582
1091,-18,-0.4375,-2.6875,-0.1870117,-0.1132813,1.106934,0.2739258,0.1196289,-0.496582
1092,-13.375,-1,-1.8125,-0.1948242,-0.09375,1.086914,0.2602539,0.1298828,-0.4912109
1093,-7,-1.875,-0.75,-0.203125,-0.1479492,1.114746,0.2602539,0.1298828,-0.4912109
1094,-0.3125,-1.625,1.375,-0.2509766,-0.1289063,1.079102,0.265625,0.1245117,-0.4887695
1095,3.3125,-1.625,1.1875,-0.2626953,-0.04736328,1.098633,0.2739258,0.1274414,-0.5073242
1096,2.9375,-1,-1,-0.2548828,-0.05126953,1.102539,0.2739258,0.1274414,-0.5073242
1097,0.9375,0,-3.0625,-0.246582,-0.01269531,1.102539,0.2631836,0.1171875,-0.5019531
1098,-2.0625,0,-4.625,-0.2109375,-0.04736328,1.055176,0.2602539,0.1274414,-0.5073242
1099,-4.0625,0,-5.25,-0.1992188,-0.08984375,1.059082,0.2602539,0.1274414,-0.5073242
1100,-2.625,0,-4.625,-0.1992188,-0.07470703,1.098633,0.2602539,0.1298828,-0.4912109
1101,-0.375,0.625,-4.4375,-0.190918,-0.08251953,1.102539,0.2602539,0.1298828,-0.4912109
1102,0.125,1.0625,-4.3125,-0.230957,-0.05126953,1.102539,0.2739258,0.1220703,-0.5019531
1103,-0.6875,0.625,-4.125,-0.2626953,-0.05908203,1.067383,0.265625,0.1298828,-0.5019531
1104,-2.0625,-0.125,-3.1875,-0.2509766,-0.06689453,1.094727,0.265625,0.1298828,-0.5019531
1105,-2,-1.375,-2.5,-0.2705078,-0.07861328,1.094727,0.2602539,0.1220703,-0.496582
1106,-1.875,-1.5625,-2.1875,-0.2587891,-0.09765625,1.122559,0.2602539,0.1220703,-0.496582
1107,-0.3125,-1.4375,-2.3125,-0.2148438,-0.1054688,1.126465,0.2685547,0.1323242,-0.5073242
1108,0.875,-1.875,-1.625,-0.2226563,-0.09765625,1.094727,0.2685547,0.1274414,-0.4990234
1109,1.375,-3.125,-0.625,-0.2109375,-0.1054688,1.09082,0.2685547,0.1274414,-0.4990234
1110,0.75,-3.9375,0.8125,-0.1992188,-0.09375,1.11084,0.2602539,0.1220703,-0.512207
1111,1.125,-3.25,2.5,-0.2387695,-0.09765625,1.11084,0.2685547,0.1298828,-0.4990234
1112,1.4375,-3.1875,3.25,-0.2426758,-0.1054688,1.098633,0.2685547,0.1298828,-0.4990234
1113,1.375,-3.4375,2.8125,-0.2070313,-0.1401367,1.102539,0.2602539,0.1196289,-0.496582
1114,1.3125,-3.5625,2.875,-0.2070313,-0.09375,1.067383,0.2602539,0.1196289,-0.496582
1115,2.0625,-5.375,3.625,-0.2387695,-0.1401367,1.102539,0.2631836,0.1323242,-0.480957
1116,4.0625,-5.9375,5.4375,-0.1948242,-0.1635742,1.130371,0.2548828,0.1298828,-0.5019531
1117,6.875,-6.0625,7.375,-0.1831055,-0.144043,1.114746,0.2548828,0.1298828,-0.5019531
1118,8.9375,-6.75,8.9375,-0.2148438,-0.1171875,1.106934,0.2548828,0.1220703,-0.5019531
1119,9.8125,-6,10.0625,-0.1992188,-0.1210938,1.122559,0.2548828,0.1220703,-0.5019531
1120,9.25,-5.9375,9.9375,-0.2109375,-0.125,1.09082,0.2685547,0.1171875,-0.5043945
1121,7.125,-6,8.25,-0.2070313,-0.1054688,1.106934,0.2578125,0.1171875,-0.5073242
1122,4.875,-5.6875,6.5,-0.1992188,-0.07080078,1.09082,0.2578125,0.1171875,-0.5073242
1123,5.0625,-5.25,5.25,-0.2070313,-0.125,1.086914,0.2548828,0.1196289,-0.4887695
1124,6.8125,-4.6875,3.6875,-0.175293,-0.1401367,1.122559,0.2631836,0.1118164,-0.4941406
1125,7.9375,-5.25,1.375,-0.1391602,-0.1401367,1.083008,0.2631836,0.1118164,-0.4941406
1126,8.75,-5.75,1.25,-0.1948242,-0.1557617,1.063477,0.265625,0.1118164,-0.5019531
1127,10.0625,-6.6875,3.375,-0.2070313,-0.1518555,1.094727,0.265625,0.1118164,-0.5019531
1128,11.625,-6.125,5.6875,-0.2109375,-0.1328125,1.09082,0.2631836,0.1245117,-0.4990234
1129,11.8125,-6.75,3.9375,-0.2226563,-0.09375,1.071289,0.2548828,0.1142578,-0.5097656
1130,10,-5.625,-1.625,-0.190918,-0.06298828,1.075195,0.2548828,0.1142578,-0.5097656
1131,8.4375,-3.625,-6.25,-0.1948242,-0.09375,1.071289,0.265625,0.1196289,-0.5019531
1132,8.8125,-2.375,-7.875,-0.1713867,-0.159668,1.086914,0.265625,0.1196289,-0.5019531
1133,10.0625,-2.5,-7,-0.1791992,-0.1401367,1.067383,0.265625,0.1196289,-0.5097656
1134,12,-2.5625,-5.6875,-0.1992188,-0.1713867,1.059082,0.2578125,0.1171875,-0.5151367
1135,14.0625,-1.5625,-4.9375,-0.203125,-0.09375,1.11084,0.2578125,0.1171875,-0.5151367
1136,13.625,-0.25,-5.3125,-0.2270508,-0.125,1.122559,0.2631836,0.1171875,-0.5151367
1137,12.0625,1.75,-6.9375,-0.2109375,-0.05126953,1.075195,0.2495117,0.1069336,-0.5151367
1138,8.4375,2.6875,-10.125,-0.2509766,-0.05908203,1.075195,0.2495117,0.1069336,-0.5151367
1139,3.9375,4.5625,-12.9375,-0.2548828,-0.07470703,1.059082,0.2578125,0.1040039,-0.5151367
1140,0.1875,5.875,-14.3125,-0.21875,-0.1054688,1.039551,0.2578125,0.1040039,-0.5151367
1141,-0.875,5.0625,-14.125,-0.2387695,-0.1015625,1.063477,0.2602539,0.1196289,-0.512207
1142,-0.0625,3.9375,-13.25,-0.21875,-0.09765625,1.122559,0.2548828,0.1220703,-0.512207
1143,1.75,3.625,-13.9375,-0.2587891,-0.07080078,1.122559,0.2548828,0.1220703,-0.512207
1144,2.3125,4,-16.3125,-0.2148438,-0.06298828,1.134277,0.2524414,0.1118164,-0.512207
1145,1.1875,5.625,-18.875,-0.2226563,-0.09375,1.086914,0.2524414,0.1118164,-0.512207
1146,0.5,6.375,-19.125,-0.2509766,-0.125,1.11084,0.2524414,0.109375,-0.5151367
1147,1.75,6.5,-18,-0.2426758,-0.144043,1.071289,0.2495117,0.1171875,-0.512207
1148,4.375,6.1875,-15.625,-0.246582,-0.1289063,1.122559,0.2495117,0.1171875,-0.512207
1149,6.6875,7.125,-14.625,-0.246582,-0.07080078,1.14209,0.2470703,0.1142578,-0.512207
1150,5.4375,7.8125,-16,-0.2387695,-0.07080078,1.118652,0.2524414,0.1171875,-0.512207
1151,2.5625,7.8125,-18.0625,-0.2387695,-0.07861328,1.09082,0.2524414,0.1171875,-0.512207
1152,0.25,7.875,-18.25,-0.2270508,-0.07861328,1.122559,0.2495117,0.1196289,-0.5019531
1154,-0.75,7.8125,-17.0625,-0.230957,-0.09375,1.122559,0.2495117,0.1196289,-0.5019531
1155,-0.75,7.4375,-16.5,-0.2148438,-0.09765625,1.102539,0.2416992,0.1142578,-0.512207
1156,-2.3125,6.75,-16.375,-0.1992188,-0.1015625,1.126465,0.2548828,0.1196289,-0.5097656
1157,-3.75,6.8125,-15.6875,-0.1948242,-0.07470703,1.150391,0.2548828,0.1196289,-0.5097656
1158,-4.1875,6.75,-14.625,-0.1591797,-0.04736328,1.154297,0.2631836,0.1220703,-0.5151367
1159,-4.5625,8.3125,-14.5625,-0.175293,-0.05126953,1.138184,0.2631836,0.1220703,-0.5151367
1160,-7.8125,9.25,-17.0625,-0.1791992,-0.04394531,1.154297,0.2470703,0.1171875,-0.5151367
1161,-12.875,9.5625,-19.4375,-0.1669922,-0.03222656,1.138184,0.2524414,0.1220703,-0.5019531
1162,-16.5625,10.5,-19.875,-0.1552734,-0.03222656,1.150391,0.2524414,0.1220703,-0.5019531
1163,-17.75,12.1875,-19.125,-0.1630859,-0.07080078,1.162109,0.2548828,0.1220703,-0.5019531
1164,-17.3125,13.375,-18.875,-0.1791992,-0.06689453,1.154297,0.2524414,0.1171875,-0.5097656
1165,-17.125,13.625,-19.0625,-0.1870117,-0.07080078,1.130371,0.2524414,0.1171875,-0.5097656
1166,-18.9375,11.8125,-19.4375,-0.203125,-0.05908203,1.122559,0.2495117,0.1220703,-0.5073242
1167,-20.625,10.875,-19.25,-0.2148438,-0.05908203,1.138184,0.2495117,0.1220703,-0.5073242
1168,-22.25,11.3125,-18.3125,-0.246582,-0.04003906,1.126465,0.2470703,0.1220703,-0.5073242
1169,-23.875,11.5,-17.625,-0.2626953,-0.06298828,1.158203,0.2602539,0.1323242,-0.5043945
1170,-24.625,10.4375,-17.8125,-0.2827148,-0.05126953,1.126465,0.2602539,0.1323242,-0.5043945
1171,-26.125,9.75,-20.5,-0.2744141,-0.05126953,1.102539,0.2495117,0.1274414,-0.4833984
1172,-27.375,10.875,-22.5625,-0.2827148,-0.05517578,1.079102,0.2495117,0.1274414,-0.4833984
1173,-26.75,11.5625,-22.8125,-0.2827148,-0.09375,1.150391,0.2470703,0.1323242,-0.496582
1174,-24.375,10.75,-21.0625,-0.2944336,-0.1328125,1.09082,0.2470703,0.1425781,-0.4833984
1175,-21.5625,9.0625,-18.3125,-0.2983398,-0.1210938,1.079102,0.2470703,0.1425781,-0.4833984
1176,-18.75,7.5,-15.75,-0.2983398,-0.1479492,1.079102,0.2548828,0.152832,-0.4858398
1177,-15.8125,7,-12.625,-0.2705078,-0.144043,1.071289,0.2548828,0.1425781,-0.496582
1178,-12.625,5.8125,-8.5625,-0.2348633,-0.1557617,1.05127,0.2548828,0.1425781,-0.496582
1179,-9.0625,4.875,-4.875,-0.2348633,-0.1362305,1.035645,0.2524414,0.1474609,-0.496582
1180,-7,2.75,-2.4375,-0.1513672,-0.1635742,0.9287109,0.2524414,0.1474609,-0.496582
1181,-11.9375,-0.3125,-1.625,-0.09960938,-0.1362305,0.9643555,0.2631836,0.152832,-0.4912109
1182,-15.9375,2.25,-1.5625,-0.1035156,-0.1054688,1.003906,0.2495117,0.1450195,-0.4887695
1183,-15.875,6.25,-1.8125,-0.09570313,-0.07080078,1.019531,0.2495117,0.1450195,-0.4887695
1184,-11.5625,12.0625,-3,-0.1113281,-0.07861328,1.055176,0.2524414,0.1425781,-0.480957
1185,-11.8125,14,-5.4375,-0.1391602,-0.07861328,1.05127,0.2524414,0.1425781,-0.480957
1186,-17.75,13.875,-6.5625,-0.2070313,-0.07861328,0.9960938,0.2524414,0.152832,-0.4887695
1187,-24.9375,14.3125,-8.625,-0.2109375,-0.07861328,0.9682617,0.2524414,0.1552734,-0.4912109
1188,-30.5625,15.3125,-12.1875,-0.2626953,-0.109375,1.015625,0.2524414,0.1552734,-0.4912109
1189,-29.1875,15.625,-16.25,-0.2626953,-0.1635742,1.031738,0.2602539,0.1630859,-0.4780273
1190,-20.875,13.6875,-18.125,-0.2866211,-0.1904297,1.071289,0.2709961,0.1733398,-0.4780273
1191,-8.25,12.25,-16.625,-0.3222656,-0.2368164,1.067383,0.2709961,0.1733398,-0.4780273
1192,1.875,9.25,-12.625,-0.3383789,-0.2177734,1.083008,0.2578125,0.1606445,-0.4912109
1193,6.5,7.5,-7.5625,-0.2744141,-0.2177734,1.047363,0.2578125,0.1606445,-0.4912109
1194,6.6875,8.3125,-1.5,-0.2983398,-0.1943359,1.067383,0.2578125,0.1630859,-0.4780273
1195,9,9.1875,3.1875,-0.2944336,-0.1982422,1.122559,0.2631836,0.1606445,-0.4912109
1196,10.9375,10.5625,4.8125,-0.2827148,-0.1557617,1.094727,0.2631836,0.1606445,-0.4912109
1197,9,11,4.25,-0.2983398,-0.1054688,1.05127,0.2739258,0.1577148,-0.4780273
1198,3.875,10.9375,3.25,-0.3222656,-0.1171875,1.007813,0.2739258,0.1577148,-0.4780273
1199,-2.3125,10.3125,4.0625,-0.3344727,-0.1401367,1.071289,0.2709961,0.1655273,-0.4755859
1200,-6.0625,9.5,4.8125,-0.3344727,-0.1557617,1.055176,0.265625,0.1606445,-0.4833984
1201,-6.8125,9.4375,5,-0.3105469,-0.1557617,1.059082,0.265625,0.1606445,-0.4833984
1202,-5.5,8.4375,5.0625,-0.2983398,-0.1982422,1.106934,0.2709961,0.1733398,-0.4833984
1203,-2.3125,6.6875,6,-0.2705078,-0.2250977,1.126465,0.265625,0.1708984,-0.4755859
1204,1.6875,5.3125,6.1875,-0.2827148,-0.2329102,1.098633,0.265625,0.1708984,-0.4755859
1205,4.4375,5.5,5.1875,-0.21875,-0.2177734,1.138184,0.2739258,0.1655273,-0.4755859
1206,7.0625,6.6875,3.8125,-0.2587891,-0.2021484,1.11084,0.2739258,0.1655273,-0.4755859
1207,9.75,2.25,6.4375,-0.2827148,-0.2250977,1.09082,0.2631836,0.1630859,-0.4702148
1208,11.1875,0.75,8.375,-0.230957,-0.2250977,1.122559,0.2739258,0.1606445,-0.480957
1209,17.8125,1.875,8.625,-0.2270508,-0.2368164,1.126465,0.2739258,0.1606445,-0.480957
1210,29.625,0.8125,10.25,-0.246582,-0.2138672,1.138184,0.2739258,0.1630859,-0.4726563
1211,35.5625,-2.3125,13,-0.2905273,-0.1904297,1.114746,0.2739258,0.1630859,-0.4726563
1212,32.5625,-4.25,15.625,-0.2788086,-0.1015625,1.098633,0.2709961,0.1503906,-0.480957
1213,22,-2.6875,15.1875,-0.2348633,-0.06298828,1.075195,0.2739258,0.1577148,-0.496582
1214,11.5625,1.875,9.375,-0.2387695,-0.01660156,1.094727,0.2739258,0.1577148,-0.496582
1215,2.0625,1.6875,1.375,-0.2148438,-0.03613281,1.075195,0.2763672,0.1503906,-0.4780273
1216,-4.5625,3.5,-6.375,-0.2070313,-0.07470703,1.094727,0.2685547,0.1450195,-0.480957
1217,-7.9375,4.875,-8.375,-0.2426758,-0.144043,1.09082,0.2685547,0.1450195,-0.480957
1219,-6.25,5.4375,-5.5,-0.2705078,-0.2021484,1.134277,0.2685547,0.1450195,-0.480957
1220,-0.6875,5.375,-1.1875,-0.2827148,-0.2216797,1.14209,0.2685547,0.1450195,-0.480957
1221,6.5625,4.25,2.625,-0.2944336,-0.2250977,1.083008,0.2788086,0.152832,-0.4780273
1222,14.625,2.125,5.5,-0.2827148,-0.2021484,1.126465,0.2631836,0.1630859,-0.4833984
1223,19.75,1.8125,7.5,-0.2788086,-0.1865234,1.11084,0.2631836,0.1630859,-0.4833984
1224,19.875,1.625,10.0625,-0.2666016,-0.1054688,1.075195,0.2739258,0.1552734,-0.480957
1225,16.9375,1.0625,13.25,-0.2705078,-0.06298828,1.122559,0.2739258,0.1552734,-0.480957
1226,10.5,-0.125,13.5,-0.2666016,-0.04736328,1.071289,0.2763672,0.152832,-0.480957
1227,0.75,0.1875,9.6875,-0.21875,-0.0009765625,1.09082,0.2685547,0.1474609,-0.4887695
1228,-10.375,1.6875,3.875,-0.2587891,-0.02050781,1.067383,0.2685547,0.1474609,-0.4887695
1229,-17.375,2.9375,-0.4375,-0.2148438,-0.04736328,1.130371,0.265625,0.1474609,-0.480957
1230,-19,3.25,-2.625,-0.2548828,-0.1787109,1.14209,0.2788086,0.1503906,-0.4833984
1231,-16.9375,3.25,-3.0625,-0.2744141,-0.1826172,1.122559,0.2788086,0.1503906,-0.4833984
1232,-11.3125,2.375,-1.5,-0.2905273,-0.2138672,1.126465,0.2763672,0.1503906,-0.480957
1233,-2.375,1.3125,2.125,-0.3222656,-0.2290039,1.106934,0.2763672,0.1503906,-0.480957
1234,9.25,-0.5625,7,-0.3222656,-0.2446289,1.14209,0.2788086,0.152832,-0.4755859
1235,19.1875,-2.25,11.4375,-0.3540039,-0.2524414,1.138184,0.2739258,0.152832,-0.480957
1236,24.1875,-2.6875,14.4375,-0.2788086,-0.175293,1.098633,0.2739258,0.152832,-0.480957
1237,23.5625,-5.3125,15.0625,-0.3261719,-0.1401367,1.071289,0.2817383,0.1503906,-0.480957
1238,19.9375,-5.5,13.875,-0.2866211,-0.07861328,1.067383,0.2817383,0.1503906,-0.480957
1239,14.0625,-4.0625,11.4375,-0.2905273,-0.05126953,1.11084,0.2763672,0.1474609,-0.496582
1240,7.875,-2.6875,8.125,-0.2626953,-0.07470703,1.09082,0.2841797,0.1450195,-0.4858398
1241,0.625,-2.125,3.9375,-0.2070313,-0.09375,1.023926,0.2841797,0.1450195,-0.4858398
1242,-4.6875,-1.4375,1.3125,-0.2426758,-0.09765625,1.086914,0.2763672,0.1401367,-0.4780273
1243,-6.375,-0.3125,-0.1875,-0.2866211,-0.125,1.158203,0.2841797,0.1474609,-0.480957
1244,-4.3125,1.375,-0.5625,-0.2788086,-0.1635742,1.122559,0.2841797,0.1474609,-0.480957
1245,-0.25,1.4375,0.125,-0.3027344,-0.1787109,1.11084,0.2763672,0.1401367,-0.4833984
1246,4.6875,0.5,1.5625,-0.3183594,-0.1982422,1.126465,0.2763672,0.1401367,-0.4833984
1247,9.875,-1,2.625,-0.3066406,-0.1904297,1.083008,0.2709961,0.1425781,-0.4887695
1248,14.125,-1,3,-0.2905273,-0.175293,1.102539,0.2739258,0.1347656,-0.4858398
1249,17.625,-0.125,3.0625,-0.2509766,-0.1713867,1.11084,0.2739258,0.1347656,-0.4858398
1250,17.9375,-0.25,4.125,-0.2866211,-0.1401367,1.071289,0.2739258,0.1401367,-0.480957
1251,16.6875,-0.5625,6.1875,-0.2827148,-0.1132813,1.09082,0.2739258,0.1401367,-0.480957
1252,12.625,-1.125,7.25,-0.2788086,-0.07861328,1.043457,0.2739258,0.1347656,-0.5043945
1253,5.5625,-0.4375,6.125,-0.2626953,-0.07861328,1.059082,0.2817383,0.1401367,-0.496582
1254,-0.8125,0.4375,3.1875,-0.2905273,-0.07470703,1.075195,0.2817383,0.1401367,-0.496582
1255,-4.8125,0.75,-0.0625,-0.2866211,-0.07470703,1.086914,0.265625,0.1347656,-0.496582
1256,-5.375,0.9375,-1.9375,-0.2983398,-0.1015625,1.102539,0.2763672,0.1376953,-0.4990234
1257,-4.625,1.8125,-3.0625,-0.2866211,-0.1557617,1.106934,0.2763672,0.1376953,-0.4990234
1258,-3.0625,1.3125,-2.5,-0.2788086,-0.1479492,1.09082,0.2817383,0.1347656,-0.4887695
1259,0.3125,1.5,-0.6875,-0.3105469,-0.175293,1.075195,0.2817383,0.1347656,-0.4887695
1260,5.25,1.6875,1.4375,-0.2905273,-0.1401367,1.11084,0.2871094,0.1376953,-0.496582
1261,10.625,2.9375,4.3125,-0.2827148,-0.1328125,1.071289,0.2949219,0.1323242,-0.4887695
1262,14.125,1.875,5.3125,-0.2983398,-0.07080078,1.098633,0.2949219,0.1323242,-0.4887695
1263,13.75,-0.3125,3.875,-0.2944336,-0.08984375,1.059082,0.2739258,0.1274414,-0.4858398
1264,10.125,-0.1875,2.25,-0.3144531,-0.07080078,1.094727,0.2739258,0.1274414,-0.4858398
1265,6.1875,1.5,0.625,-0.2944336,-0.06298828,1.094727,0.2788086,0.1323242,-0.4912109
1266,1.1875,2.875,-0.25,-0.2744141,-0.05126953,1.071289,0.2788086,0.1347656,-0.4887695
1267,-2.5,2.5625,-0.1875,-0.2983398,-0.07080078,1.071289,0.2788086,0.1347656,-0.4887695
1268,-4.625,1.75,-0.1875,-0.2587891,-0.07861328,1.094727,0.2841797,0.1298828,-0.5019531
1269,-4.4375,1.875,-0.5,-0.2944336,-0.09375,1.106934,0.2763672,0.1347656,-0.496582
1270,-3.5625,2.875,-0.375,-0.3105469,-0.09765625,1.126465,0.2763672,0.1347656,-0.496582
1271,-2.5,1.75,1.0625,-0.2944336,-0.1171875,1.094727,0.2841797,0.1323242,-0.4941406
1272,-0.125,-0.4375,2.6875,-0.3105469,-0.1171875,1.083008,0.2841797,0.1323242,-0.4941406
1273,2.5625,-1.3125,3.5,-0.3066406,-0.1289063,1.126465,0.2763672,0.1347656,-0.4941406
1274,3.125,-0.375,3.5,-0.2705078,-0.1132813,1.122559,0.2763672,0.1376953,-0.496582
1275,1.0625,-0.5,2.375,-0.2548828,-0.07080078,1.09082,0.2763672,0.1376953,-0.496582
1276,-1.75,-1.9375,-0.0625,-0.2744141,-0.06689453,1.067383,0.2817383,0.1274414,-0.4858398
1277,-3.9375,-3,-2.1875,-0.3261719,-0.09765625,1.118652,0.2817383,0.1274414,-0.4858398
1278,-4.5625,-2.375,-3.6875,-0.2983398,-0.1171875,1.130371,0.2841797,0.1298828,-0.4833984
1279,-3.125,-1.75,-3.5,-0.3383789,-0.1713867,1.146484,0.2763672,0.1298828,-0.4941406
1280,0.125,-2.3125,-1.125,-0.3623047,-0.1865234,1.098633,0.2763672,0.1298828,-0.4941406
1281,4.75,-5.3125,1.8125,-0.3344727,-0.159668,1.11084,0.2788086,0.1245117,-0.4887695
1282,9.5,-8.0625,4.9375,-0.3461914,-0.1635742,1.122559,0.2817383,0.1298828,-0.4858398
1284,13.25,-8.5625,6.9375,-0.3105469,-0.1865234,1.134277,0.2817383,0.1298828,-0.4858398
1285,13.625,-7.25,6.8125,-0.3183594,-0.09375,1.138184,0.2817383,0.1245117,-0.4858398
1286,9.5625,-6.8125,4.375,-0.2905273,-0.1132813,1.067383,0.2817383,0.1245117,-0.4858398
1287,4.375,-6.9375,2.4375,-0.2866211,-0.1171875,1.079102,0.2841797,0.1347656,-0.496582
1288,2.6875,-6.625,4,-0.2666016,-0.109375,1.063477,0.2841797,0.1274414,-0.4858398
1289,2.8125,-6.5,5.1875,-0.2788086,-0.1479492,1.098633,0.2841797,0.1274414,-0.4858398
1290,2.0625,-4.625,5.6875,-0.2788086,-0.1132813,1.094727,0.2763672,0.1220703,-0.512207
1291,1.75,-3.4375,4.8125,-0.3183594,-0.09375,1.043457,0.2763672,0.1220703,-0.512207
1292,2.5,-1.75,3.625,-0.3222656,-0.1015625,1.039551,0.2895508,0.1323242,-0.4990234
1293,0.5,-1.75,3.875,-0.3027344,-0.09765625,1.007813,0.2739258,0.1220703,-0.4990234
1294,-3.5625,-3.5625,7.25,-0.3222656,-0.07470703,0.9682617,0.2739258,0.1220703,-0.4990234
1295,-9.625,-4.0625,10.125,-0.3305664,-0.08642578,0.9169922,0.2763672,0.1220703,-0.4912109
1296,-19,-3.6875,8.5,-0.2905273,0.01367188,0.9365234,0.2895508,0.1376953,-0.4941406
1297,-32.125,-0.5625,0.375,-0.2548828,-0.02050781,0.8891602,0.2895508,0.1376953,-0.4941406
1298,-43.1875,3.1875,-10.8125,-0.2705078,-0.06689453,0.9682617,0.2739258,0.1298828,-0.4887695
1299,-52.1875,1.6875,-18.1875,-0.2827148,-0.125,0.8735352,0.2739258,0.1298828,-0.4887695
1300,-70.875,-11.4375,-17.625,-0.2744141,-0.1674805,0.8496094,0.2817383,0.1298828,-0.496582
1301,-92.8125,-11.375,-11.9375,-0.2587891,-0.2216797,0.9013672,0.2817383,0.1298828,-0.496582
1302,-103.875,-6.75,-2.25,-0.3027344,-0.2407227,0.9248047,0.2817383,0.1298828,-0.496582
1303,-91.0625,-6.25,5.3125,-0.2983398,-0.2602539,1.067383,0.300293,0.152832,-0.4648438
1304,-56.6875,1.8125,7.8125,-0.2666016,-0.2138672,1.154297,0.300293,0.152832,-0.4648438
1305,-13.6875,8.8125,5.125,-0.2944336,-0.1943359,1.122559,0.300293,0.152832,-0.4648438
1306,15,5.625,2.8125,-0.2827148,-0.1635742,1.023926,0.3085938,0.1733398,-0.4624023
1307,26.0625,13.6875,0.875,-0.2666016,-0.1132813,1.015625,0.3085938,0.1733398,-0.4624023
1308,25,20,-2,-0.2666016,-0.05908203,0.9804688,0.3085938,0.1733398,-0.4624023
1309,14.875,17,-4.5625,-0.21875,-0.07470703,0.9487305,0.300293,0.1679688,-0.4833984
1310,-3.625,13.3125,-7.375,-0.2387695,-0.09375,0.9287109,0.300293,0.1679688,-0.4833984
1311,-17.9375,18.3125,-6.5625,-0.2587891,-0.1328125,1,0.300293,0.1679688,-0.4833984
1312,-21.8125,19.3125,-3.125,-0.2705078,-0.1210938,1.063477,0.300293,0.1679688,-0.4833984
1313,-13.5,16.5,0.375,-0.3183594,-0.08251953,1.134277,0.3085938,0.1708984,-0.4677734
1314,-4.25,10.9375,-2.125,-0.3027344,-0.05908203,1.106934,0.3085938,0.1708984,-0.4677734
1315,-5.875,9.1875,-10.875,-0.3066406,-0.08251953,1.126465,0.3085938,0.1708984,-0.4677734
1316,-15,10.6875,-17.4375,-0.2905273,-0.1635742,1.14209,0.3217773,0.1606445,-0.4726563
1317,-30.625,11.1875,-15.6875,-0.2866211,-0.1787109,1.138184,0.3217773,0.1606445,-0.4726563
1318,-50.0625,12.375,-11.375,-0.2983398,-0.2407227,1.106934,0.3217773,0.1606445,-0.4726563
1319,-58.875,10.75,-4.9375,-0.3027344,-0.2407227,1.086914,0.3271484,0.1733398,-0.4702148
1320,-56.375,4.625,-0.4375,-0.3344727,-0.2407227,1.130371,0.3271484,0.1733398,-0.4702148
1321,-47,-1.375,-1.6875,-0.3305664,-0.2407227,1.237305,0.3271484,0.1733398,-0.4702148
1322,-36.5,2.1875,-6.6875,-0.3222656,-0.2602539,1.213379,0.3378906,0.1860352,-0.4545898
1323,-34.3125,5.4375,-12.9375,-0.3461914,-0.2485352,1.130371,0.3378906,0.1860352,-0.4545898
1324,-38.625,-2.0625,-16.875,-0.3583984,-0.2871094,1.126465,0.3378906,0.1860352,-0.4545898
1325,-46.8125,-7.3125,-17.75,-0.3222656,-0.3295898,1.181641,0.3378906,0.1860352,-0.4545898
1326,-60.25,-4.5,-18.375,-0.3183594,-0.3681641,1.20166,0.3325195,0.2041016,-0.4467773
1327,-73,-2,-17.4375,-0.3183594,-0.3876953,1.169922,0.3325195,0.2041016,-0.4467773
1328,-72.5625,-4.9375,-13,-0.2788086,-0.453125,1.150391,0.3325195,0.2041016,-0.4467773
1329,-58.3125,-6,-8,-0.2983398,-0.3955078,1.189941,0.3349609,0.2041016,-0.4335938
1330,-36.5,-1.3125,-6.375,-0.3027344,-0.3994141,1.185547,0.3349609,0.2041016,-0.4335938
1331,-20.6875,-4.6875,-6.5,-0.3623047,-0.3564453,1.11084,0.3349609,0.2041016,-0.4335938
1332,-10.6875,-6.0625,-5.8125,-0.3583984,-0.3374023,1.154297,0.3432617,0.2143555,-0.4360352
1333,-0.8125,-2.875,-6.625,-0.3383789,-0.3139648,1.158203,0.3432617,0.2143555,-0.4360352
1334,2.1875,-2.3125,-9,-0.3261719,-0.2485352,1.043457,0.3432617,0.2143555,-0.4360352
1335,-9.75,-4.125,-14.25,-0.2626953,-0.2753906,0.984375,0.3432617,0.2216797,-0.4335938
1336,-32.5625,-4.0625,-22.5625,-0.2148438,-0.3139648,0.9882813,0.3432617,0.2216797,-0.4335938
1337,-52.1875,-7.125,-28.4375,-0.1552734,-0.3876953,1.007813,0.3432617,0.2216797,-0.4335938
1338,-60.625,-9.8125,-32.875,-0.1513672,-0.4223633,1.098633,0.3432617,0.2216797,-0.4335938
1339,-54.5625,-6.5625,-35.5625,-0.1513672,-0.4379883,1.169922,0.3349609,0.2192383,-0.4204102
1340,-28.875,-1.875,-34.375,-0.2626953,-0.4648438,1.276855,0.3486328,0.2397461,-0.4228516
1341,13.5625,-6,-24.9375,-0.3662109,-0.4379883,1.29248,0.3486328,0.2397461,-0.4228516
1342,51.3125,-9.5,-13.4375,-0.4057617,-0.3452148,1.276855,0.340332,0.2421875,-0.4121094
1343,70.5625,-7,-8.875,-0.4018555,-0.2021484,1.205566,0.3325195,0.2246094,-0.425293
1344,63.6875,-11,-15.125,-0.3261719,-0.144043,1.122559,0.3325195,0.2246094,-0.425293
1345,26.9375,-17.5,-31.0625,-0.2387695,-0.159668,1.063477,0.3295898,0.2192383,-0.4360352
1346,-22.25,-16,-40.25,-0.2148438,-0.2832031,1.102539,0.3295898,0.2192383,-0.4360352
1347,-59.0625,-24.625,-30.875,-0.1791992,-0.3413086,1.154297,0.3217773,0.2216797,-0.4360352
1349,-69.9375,-30.3125,-16,-0.1870117,-0.3837891,1.3125,0.3325195,0.2373047,-0.425293
1350,-54.6875,-24.125,-5.5,-0.1669922,-0.3530273,1.335938,0.3325195,0.2373047,-0.425293
1351,-25.9375,-18.5625,-3.375,-0.1713867,-0.3603516,1.280762,0.3295898,0.2373047,-0.4150391
1352,1.625,-17.0625,-5,-0.2070313,-0.2871094,1.071289,0.3295898,0.2373047,-0.4150391
1353,19.8125,-22.5,-6.0625,-0.2109375,-0.2485352,1.015625,0.3295898,0.2373047,-0.4150391
1354,32.3125,-19.1875,-8.75,-0.1669922,-0.2329102,1.079102,0.3217773,0.2397461,-0.425293
1355,42,-15,-9.1875,-0.1992188,-0.1826172,1.063477,0.3217773,0.2397461,-0.425293
1356,43.5625,-16,-7.6875,-0.1948242,-0.1518555,0.9682617,0.3139648,0.2294922,-0.4282227
1357,34.4375,-18.125,-8.25,-0.1948242,-0.1289063,0.9804688,0.3110352,0.2192383,-0.425293
1358,17.6875,-17.5625,-8.625,-0.175293,-0.1479492,0.9287109,0.3110352,0.2192383,-0.425293
1359,-0.0625,-14.6875,-6.9375,-0.1474609,-0.159668,0.8657227,0.3110352,0.2294922,-0.4360352
1360,-12.5,-14.25,-5.125,-0.1591797,-0.1865234,0.9091797,0.3110352,0.2294922,-0.4360352
1361,-17.5625,-17.1875,-4.875,-0.1630859,-0.1826172,0.9287109,0.3085938,0.2246094,-0.4360352
1362,-19.8125,-18.625,-5.875,-0.1591797,-0.1713867,0.9448242,0.3032227,0.2270508,-0.4306641
1363,-18.75,-16.6875,-5.1875,-0.1513672,-0.1826172,1.003906,0.3032227,0.2270508,-0.4306641
1364,-15.125,-13.875,-4.5625,-0.1831055,-0.1904297,0.9487305,0.3085938,0.2397461,-0.4335938
1365,-15.8125,-11.125,-4.625,-0.1552734,-0.1982422,0.9169922,0.3085938,0.2397461,-0.4335938
1366,-20.8125,-10.125,-3.8125,-0.1791992,-0.2446289,0.8696289,0.3056641,0.2348633,-0.4384766
1367,-27.625,-10.5,-1.25,-0.1831055,-0.2407227,0.9052734,0.2978516,0.2373047,-0.4306641
1368,-34.3125,-11,0.0625,-0.1391602,-0.3066406,0.9526367,0.2978516,0.2373047,-0.4306641
1369,-38.125,-11.375,0.75,-0.1074219,-0.2871094,0.9365234,0.2871094,0.2294922,-0.4360352
1370,-37.125,-10.8125,-0.3125,-0.1591797,-0.3295898,0.9960938,0.3056641,0.2397461,-0.4228516
1371,-30.0625,-9.5,-0.8125,-0.1235352,-0.3564453,1.031738,0.3056641,0.2397461,-0.4228516
1372,-13.5,-7.1875,0.5,-0.1430664,-0.3374023,1.094727,0.3085938,0.2421875,-0.4121094
1373,8.875,-3.75,5.3125,-0.2109375,-0.3027344,1.122559,0.3085938,0.2421875,-0.4121094
1374,25.8125,-2.8125,11,-0.1791992,-0.2832031,1.063477,0.3032227,0.2475586,-0.4204102
1375,32,-0.125,11.8125,-0.175293,-0.2485352,1.027832,0.3056641,0.2451172,-0.4121094
1376,31.25,3.0625,8.8125,-0.1430664,-0.2177734,1.011719,0.3056641,0.2451172,-0.4121094
1377,25,3.4375,6.0625,-0.1352539,-0.1982422,0.9804688,0.3032227,0.2475586,-0.425293
1378,13,1.375,4.8125,-0.1074219,-0.2250977,0.9804688,0.3032227,0.2475586,-0.425293
1379,-1.1875,1.5,5.875,-0.1274414,-0.2138672,1.007813,0.3056641,0.2348633,-0.4282227
1380,-14.6875,4.75,6.1875,-0.1391602,-0.2446289,1,0.300293,0.2397461,-0.4282227
1381,-23.0625,5.0625,5.8125,-0.1870117,-0.2524414,0.9760742,0.300293,0.2397461,-0.4282227
1382,-28.375,0.5625,3.625,-0.1591797,-0.2675781,1.031738,0.300293,0.2397461,-0.4174805
1383,-34.8125,-1.1875,0.5625,-0.1552734,-0.3491211,1.047363,0.3110352,0.2373047,-0.4306641
1384,-39.875,0,-0.5625,-0.1791992,-0.3491211,1.075195,0.3110352,0.2373047,-0.4306641
1385,-40.25,1,2,-0.1591797,-0.3955078,1.05127,0.3110352,0.2397461,-0.4150391
1386,-33.0625,1.75,6.1875,-0.1630859,-0.3720703,1.079102,0.3110352,0.2397461,-0.4150391
1387,-21.375,3.625,8.1875,-0.175293,-0.3720703,1.09082,0.3188477,0.2451172,-0.4282227
1388,-13.875,6.0625,5.125,-0.1352539,-0.3916016,1.059082,0.3110352,0.2524414,-0.4150391
1389,-12.5625,8.625,1.375,-0.1630859,-0.3876953,1.083008,0.3110352,0.2524414,-0.4150391
1390,-15.1875,8.6875,-2.125,-0.1992188,-0.4067383,1.086914,0.3139648,0.2451172,-0.4018555
1391,-19,7.125,-5.8125,-0.203125,-0.4223633,1.079102,0.3139648,0.2451172,-0.4018555
1392,-20.6875,5.25,-10.25,-0.2226563,-0.4262695,1.122559,0.3217773,0.2553711,-0.3994141
1393,-14.1875,4,-11.6875,-0.2788086,-0.4648438,1.177734,0.3295898,0.25,-0.3994141
1394,0.3125,2.0625,-4.8125,-0.2983398,-0.4648438,1.134277,0.3295898,0.25,-0.3994141
1395,13.1875,-4.4375,4.6875,-0.246582,-0.4145508,1.126465,0.3217773,0.25,-0.4072266
1396,19,-7.75,11.125,-0.2109375,-0.4223633,1.146484,0.3295898,0.2578125,-0.4042969
1397,16.9375,-1.375,12.25,-0.1591797,-0.3413086,1.094727,0.3295898,0.2578125,-0.4042969
1398,8.4375,4.6875,10.5625,-0.1831055,-0.3295898,0.9960938,0.3325195,0.2602539,-0.4204102
1399,-1.3125,0.375,9,-0.1713867,-0.3027344,0.9960938,0.3325195,0.2602539,-0.4204102
1400,-9.375,-2.625,7.25,-0.1274414,-0.3105469,1.023926,0.3242188,0.2397461,-0.4018555
1401,-16.5625,-1.75,4.25,-0.1513672,-0.2988281,1.019531,0.3325195,0.2451172,-0.409668
1402,-21.9375,-1.8125,0.75,-0.1992188,-0.3413086,1.035645,0.3325195,0.2451172,-0.409668
1403,-23.9375,-2.125,-0.4375,-0.2148438,-0.3916016,1.067383,0.3271484,0.2524414,-0.4072266
1404,-20.8125,-1.3125,0.9375,-0.2426758,-0.3955078,1.075195,0.3271484,0.2524414,-0.4072266
1405,-13.0625,-1,3.375,-0.2387695,-0.3955078,1.063477,0.3271484,0.2553711,-0.4018555
1406,-4.0625,-1.4375,6.0625,-0.2109375,-0.3916016,1.083008,0.3325195,0.2578125,-0.3964844
1407,4.6875,-3.25,7.375,-0.2387695,-0.3720703,1.035645,0.3325195,0.2578125,-0.3964844
1408,10.25,-3.3125,7.75,-0.1831055,-0.3530273,1.007813,0.3325195,0.25,-0.4042969
1409,9.9375,-0.8125,6.5,-0.175293,-0.3452148,0.9921875,0.3271484,0.2553711,-0.3911133
1410,6.6875,0.625,3.9375,-0.1552734,-0.3139648,1.003906,0.3271484,0.2553711,-0.3911133
1411,0.0625,-1.4375,-0.25,-0.1474609,-0.3217773,1.007813,0.3242188,0.2475586,-0.4072266
1412,-7.9375,-0.75,-4.375,-0.1591797,-0.3603516,1.043457,0.3242188,0.2475586,-0.4072266
1414,-10.4375,1.625,-5.5,-0.2070313,-0.402832,0.9960938,0.3349609,0.2578125,-0.4174805
1415,-6.4375,1.5,-5.4375,-0.2148438,-0.3681641,1.019531,0.3349609,0.2578125,-0.4042969
1416,1.8125,0.5625,-4.9375,-0.2070313,-0.3876953,1.031738,0.3349609,0.2578125,-0.4042969
1417,10,1.25,-4.5625,-0.1870117,-0.3876953,1.015625,0.340332,0.2451172,-0.3964844
1418,18.625,2.5625,-2.5625,-0.175293,-0.3681641,1.043457,0.340332,0.2451172,-0.3964844
1419,27.5,4.6875,1.5625,-0.190918,-0.3681641,1.019531,0.3325195,0.2475586,-0.4072266
1420,32.125,5.9375,4.8125,-0.203125,-0.3564453,1,0.3271484,0.2451172,-0.4018555
1421,30.9375,5.4375,3.4375,-0.1870117,-0.2988281,0.9960938,0.3271484,0.2451172,-0.4018555
1422,25.75,7.875,-2.625,-0.1513672,-0.2832031,0.956543,0.3325195,0.2319336,-0.409668
1423,14.1875,8.4375,-11.375,-0.1831055,-0.3256836,0.9326172,0.3295898,0.2397461,-0.4121094
1424,1.3125,7.125,-17.6875,-0.1948242,-0.3217773,1.011719,0.3295898,0.2397461,-0.4121094
1425,-4.75,9.9375,-14.6875,-0.2109375,-0.3955078,1.031738,0.3378906,0.2348633,-0.4150391
1426,-3,7.8125,-7.5,-0.2387695,-0.3955078,1.023926,0.3378906,0.2348633,-0.4150391
1427,4.375,5.8125,-1.375,-0.246582,-0.3876953,1.059082,0.3217773,0.2421875,-0.409668
1428,14.5625,7.4375,0.375,-0.246582,-0.3720703,1.047363,0.3295898,0.25,-0.409668
1429,22.9375,7.5625,-1.875,-0.2348633,-0.3413086,1.059082,0.3295898,0.25,-0.409668
1430,26.75,8.25,-3.0625,-0.2426758,-0.3105469,1.059082,0.3242188,0.2373047,-0.4121094
1431,29.5625,9.5,-0.5,-0.203125,-0.3491211,1.027832,0.3242188,0.2373047,-0.4121094
1432,34.6875,11.3125,4.8125,-0.21875,-0.3413086,1.023926,0.3325195,0.25,-0.4018555
1433,40.5625,10.8125,7.75,-0.2348633,-0.2949219,0.984375,0.3325195,0.2348633,-0.4204102
1434,40.75,6.875,4.6875,-0.1992188,-0.2832031,0.956543,0.3325195,0.2348633,-0.4204102
1435,32.0625,4.75,-4.25,-0.1948242,-0.2407227,0.9760742,0.3325195,0.2270508,-0.4204102
1436,16.125,5.9375,-14,-0.1591797,-0.3066406,1.011719,0.3242188,0.2246094,-0.4335938
1437,1.1875,10.8125,-16.0625,-0.1948242,-0.3720703,0.9804688,0.3242188,0.2246094,-0.4335938
1438,-5.25,8.8125,-10.5,-0.2070313,-0.3916016,1.035645,0.3349609,0.2089844,-0.4228516
1439,-2.5625,5.4375,-3.625,-0.21875,-0.3681641,1.023926,0.3349609,0.2089844,-0.4228516
1440,9.1875,7.75,1.5,-0.21875,-0.3876953,1.09082,0.3271484,0.2319336,-0.425293
1441,25.375,13.6875,2.1875,-0.2070313,-0.3178711,1.09082,0.3295898,0.2348633,-0.4228516
1442,38.4375,16.25,0.1875,-0.2509766,-0.3256836,1.043457,0.3295898,0.2348633,-0.4228516
1443,49.8125,13.5,0.8125,-0.246582,-0.2832031,1.055176,0.3349609,0.2216797,-0.4282227
1444,60.0625,15.75,0.125,-0.2226563,-0.2988281,1.083008,0.3349609,0.2216797,-0.4282227
1445,72.0625,22.5625,-0.5625,-0.2426758,-0.2368164,1.126465,0.3139648,0.2167969,-0.4306641
1446,85.3125,26.125,1.25,-0.2788086,-0.2407227,1.094727,0.3217773,0.2192383,-0.4414063
1447,91.375,17.125,3.875,-0.2509766,-0.2021484,1.063477,0.3217773,0.2192383,-0.4414063
1448,82.375,10.8125,0.1875,-0.1948242,-0.159668,1.11084,0.3164063,0.206543,-0.4360352
1449,54.4375,14.1875,-9.75,-0.203125,-0.1557617,1.075195,0.3139648,0.1884766,-0.4624023
1450,18.9375,19.625,-12.9375,-0.2109375,-0.2138672,0.972168,0.3139648,0.1884766,-0.4624023
1451,-4.8125,16,-8.1875,-0.2426758,-0.2675781,0.9604492,0.3139648,0.1938477,-0.4438477
1452,-7.875,7.375,-1.625,-0.246582,-0.2446289,1.122559,0.3139648,0.1938477,-0.4438477
1453,5.1875,11.75,1.4375,-0.230957,-0.2250977,1.213379,0.3217773,0.2041016,-0.4545898
1454,19.6875,18.25,-2.6875,-0.2509766,-0.1865234,1.166016,0.3164063,0.1860352,-0.4492188
1455,24.75,15.875,-8.875,-0.2866211,-0.1865234,1.102539,0.3164063,0.1860352,-0.4492188
1456,21,14.75,-10.6875,-0.3144531,-0.2485352,1.09082,0.3085938,0.1962891,-0.4570313
1457,17.4375,15,-6.5625,-0.3344727,-0.1982422,1.098633,0.3085938,0.1962891,-0.4570313
1458,19.6875,15.375,-1.5,-0.2788086,-0.2177734,1.11084,0.3217773,0.1987305,-0.4492188
1459,26.1875,14.9375,1.0625,-0.2827148,-0.2368164,1.166016,0.3139648,0.206543,-0.4545898
1460,32.8125,14.1875,0.6875,-0.2788086,-0.2060547,1.126465,0.3139648,0.206543,-0.4545898
1461,37.3125,14.5,-1.125,-0.2509766,-0.2021484,1.173828,0.3295898,0.1860352,-0.4545898
1462,40.125,15.125,-1.875,-0.2666016,-0.2216797,1.138184,0.3217773,0.1757813,-0.4570313
1463,40.875,14.1875,-0.125,-0.2866211,-0.1826172,1.150391,0.3217773,0.1757813,-0.4570313
1464,40.5625,13.5625,1.25,-0.2788086,-0.1943359,1.150391,0.3242188,0.1835938,-0.4570313
1465,38.1875,14.125,0.5625,-0.2788086,-0.1904297,1.094727,0.3242188,0.1835938,-0.4570313
1466,32.4375,10.25,-1.125,-0.2626953,-0.1479492,1.09082,0.3139648,0.1811523,-0.4677734
1467,23.375,6.875,-4.625,-0.2788086,-0.1635742,1.086914,0.3188477,0.1757813,-0.4677734
1468,10.6875,5.4375,-9,-0.2426758,-0.1328125,1.09082,0.3188477,0.1757813,-0.4677734
1469,-2.375,5.5,-12.625,-0.2509766,-0.1865234,1.067383,0.3188477,0.1733398,-0.4677734
1470,-11,7.625,-14.75,-0.230957,-0.2675781,1.086914,0.3188477,0.1733398,-0.4677734
1471,-12.9375,4,-13,-0.2983398,-0.2988281,1.059082,0.3188477,0.1655273,-0.4677734
1472,-8.625,-0.125,-8.4375,-0.2705078,-0.3139648,1.094727,0.3188477,0.1757813,-0.4702148
1473,5.3125,2.75,-3.125,-0.2944336,-0.3334961,1.138184,0.3188477,0.1757813,-0.4702148
