Packet number,Gyroscope X (deg/s),Gyroscope Y (deg/s),Gyroscope Z (deg/s),Accelerometer X (g),Accelerometer Y (g),Accelerometer Z (g),Magnetometer X (G),Magnetometer Y (G),Magnetometer Z (G)
114,40.875,-19.125,-72.6875,-0.3662109,0.02539063,0.9013672,0.1323242,-0.3686523,-0.262207
115,32.4375,-7.1875,-56.25,-0.4853516,-0.1015625,1.059082,0.1269531,-0.3837891,-0.2519531
116,29.6875,-6.4375,-53.0625,-0.4379883,-0.1210938,1.071289,0.1455078,-0.3969727,-0.2490234
117,26.1875,-5.5,-51.0625,-0.421875,-0.144043,1.122559,0.1455078,-0.3969727,-0.2490234
118,21.8125,-4.0625,-50.25,-0.3779297,-0.1289063,1.122559,0.1455078,-0.3969727,-0.2490234
119,18,-1.875,-50.125,-0.3305664,-0.1557617,1.138184,0.1347656,-0.4018555,-0.2543945
120,13.5625,0.875,-48.75,-0.3383789,-0.1289063,1.185547,0.1347656,-0.4018555,-0.2543945
121,11.125,4.3125,-47.375,-0.3261719,-0.1171875,1.169922,0.1347656,-0.4018555,-0.2543945
122,9.6875,7.4375,-49.25,-0.2827148,-0.1328125,1.221191,0.1323242,-0.4072266,-0.262207
123,8.8125,9.75,-52.9375,-0.2905273,-0.1479492,1.233398,0.1323242,-0.4072266,-0.262207
124,7.6875,10.0625,-56.9375,-0.2983398,-0.1328125,1.20166,0.1455078,-0.4121094,-0.2490234
125,2.5625,9.875,-59.375,-0.3027344,-0.1171875,1.14209,0.1455078,-0.4072266,-0.2568359
126,-8.5,8.4375,-55.875,-0.2788086,-0.109375,1.146484,0.1455078,-0.4072266,-0.2568359
127,-22,7.8125,-50.625,-0.2788086,-0.144043,1.197754,0.1430664,-0.4072266,-0.2651367
128,-34.0625,6.125,-45.75,-0.2548828,-0.1826172,1.154297,0.1430664,-0.4072266,-0.2651367
129,-40.3125,4.6875,-43.625,-0.2270508,-0.1904297,1.181641,0.1347656,-0.4042969,-0.2543945
130,-39.5625,3.125,-45.375,-0.2070313,-0.2641602,1.197754,0.15625,-0.3969727,-0.2568359
131,-33.125,2,-51.5625,-0.1591797,-0.3413086,1.296387,0.15625,-0.3969727,-0.2568359
132,-22,0.5,-57.25,-0.1513672,-0.3642578,1.264648,0.1455078,-0.3969727,-0.2543945
133,-15.5625,-2.1875,-60.3125,-0.1152344,-0.3564453,1.296387,0.1455078,-0.3969727,-0.2543945
134,-15,-4.625,-59.75,-0.1274414,-0.3491211,1.237305,0.1455078,-0.3969727,-0.2543945
135,-17.9375,-9,-57.375,-0.1391602,-0.3295898,1.189941,0.1508789,-0.3916016,-0.2568359
136,-20.6875,-16,-57.0625,-0.1391602,-0.3105469,1.134277,0.1508789,-0.3916016,-0.2568359
137,-22.9375,-24.875,-56.125,-0.1513672,-0.3491211,1.126465,0.1484375,-0.3837891,-0.2568359
138,-26.3125,-35.5,-52.25,-0.1513672,-0.3530273,1.114746,0.1430664,-0.3867188,-0.2543945
139,-29,-44.875,-47.9375,-0.1074219,-0.4379883,1.126465,0.1430664,-0.3867188,-0.2543945
140,-28.625,-54.4375,-44.5625,-0.04785156,-0.4804688,1.221191,0.1347656,-0.3891602,-0.2568359
141,-24.75,-60.75,-43.125,0.03515625,-0.4995117,1.276855,0.1347656,-0.3891602,-0.2568359
142,-18.5,-63.5,-42,0.1269531,-0.503418,1.280762,0.1376953,-0.3837891,-0.262207
143,-10.5,-63.625,-40.875,0.1508789,-0.5341797,1.316406,0.1269531,-0.3608398,-0.2543945
144,-3.8125,-61.25,-39.5,0.1943359,-0.5537109,1.316406,0.1269531,-0.3608398,-0.2543945
145,-0.9375,-56.625,-38.375,0.2265625,-0.5307617,1.324219,0.1240234,-0.3789063,-0.2729492
146,-0.9375,-49.0625,-37.5625,0.2265625,-0.4956055,1.268555,0.1108398,-0.3813477,-0.262207
147,-4.375,-40.75,-33.375,0.1826172,-0.46875,1.189941,0.1108398,-0.3813477,-0.262207
148,-13.5625,-32.875,-24.125,0.1425781,-0.4262695,1.134277,0.1030273,-0.3686523,-0.2543945
149,-24.25,-27.0625,-14.8125,0.1147461,-0.4223633,1.059082,0.1030273,-0.3686523,-0.2543945
150,-32.125,-23.4375,-7.5,0.06738281,-0.4223633,1.015625,0.1054688,-0.3686523,-0.2568359
151,-35,-22.5625,0.4375,-0.01171875,-0.46875,0.9604492,0.1000977,-0.3710938,-0.262207
152,-34.6875,-23.25,9.125,-0.06347656,-0.5112305,0.8930664,0.1000977,-0.3710938,-0.262207
153,-32.4375,-26.1875,16.5,-0.1235352,-0.5419922,0.8696289,0.09765625,-0.3686523,-0.2543945
154,-28.0625,-31.1875,23.25,-0.1430664,-0.5073242,0.8774414,0.09765625,-0.3686523,-0.2543945
155,-21.5625,-36.9375,30.3125,-0.1552734,-0.4882813,0.8061523,0.1083984,-0.3632813,-0.2651367
156,-14.9375,-41.6875,38.375,-0.1152344,-0.5073242,0.8061523,0.1000977,-0.3710938,-0.2597656
157,-9.375,-45.4375,44.875,-0.07177734,-0.418457,0.8100586,0.1000977,-0.3710938,-0.2597656
158,-4.4375,-48.8125,48.9375,-0.09130859,-0.4570313,0.8100586,0.08935547,-0.3583984,-0.2568359
159,-0.375,-51.25,51.3125,-0.05566406,-0.3955078,0.8300781,0.08935547,-0.3481445,-0.262207
160,0.6875,-52,55.75,-0.07568359,-0.3564453,0.8378906,0.08935547,-0.3481445,-0.262207
161,-2.5,-50.4375,64.1875,-0.04394531,-0.3759766,0.8618164,0.07617188,-0.3505859,-0.2568359
162,-5.625,-47.8125,70.1875,-0.03173828,-0.3295898,0.8774414,0.07617188,-0.3505859,-0.2568359
163,-8.0625,-45.5,72.4375,-0.03564453,-0.2988281,0.9013672,0.06542969,-0.3530273,-0.2568359
164,-8.5,-42.875,72.9375,-0.08740234,-0.3066406,0.8974609,0.05761719,-0.3432617,-0.2568359
165,-7,-41.375,74.1875,-0.1113281,-0.2988281,0.8457031,0.05761719,-0.3432617,-0.2568359
166,-4.875,-40.5,76.5,-0.1352539,-0.3139648,0.8579102,0.06005859,-0.355957,-0.2436523
167,-5,-40.75,79.25,-0.1274414,-0.3603516,0.8378906,0.06005859,-0.355957,-0.2436523
168,-4.8125,-40.1875,81.125,-0.1870117,-0.2910156,0.8735352,0.046875,-0.3632813,-0.2597656
169,-3.625,-40.0625,81.25,-0.2070313,-0.2910156,0.8735352,0.046875,-0.3432617,-0.2568359
170,-1.3125,-38.6875,80.5,-0.2548828,-0.2641602,0.9248047,0.046875,-0.3432617,-0.2568359
171,1.375,-36.8125,80.375,-0.2426758,-0.2641602,0.9526367,0.03613281,-0.3457031,-0.262207
172,3.75,-34.5625,78.25,-0.2983398,-0.2290039,1,0.03320313,-0.340332,-0.2543945
173,5.0625,-31.375,75,-0.3344727,-0.2524414,1.035645,0.03320313,-0.340332,-0.2543945
174,6.75,-28.75,71.4375,-0.4057617,-0.1982422,1.075195,0.03076172,-0.3330078,-0.2387695
175,8.1875,-27.625,67.4375,-0.4379883,-0.1865234,1.047363,0.03076172,-0.3330078,-0.2387695
176,7.6875,-25.625,61.625,-0.4458008,-0.109375,1.075195,0.02783203,-0.3378906,-0.2568359
177,2.5,-22.25,54.875,-0.4814453,-0.02832031,1.130371,0.02294922,-0.3378906,-0.2543945
179,-4.4375,-18.375,46.6875,-0.5014648,0.02929688,1.14209,0.02294922,-0.3378906,-0.2543945
180,-12.4375,-13.375,37,-0.5371094,0.08349609,1.14209,0.02001953,-0.340332,-0.2519531
181,-23.4375,-7.9375,28.9375,-0.5253906,0.07568359,1.098633,0.02001953,-0.340332,-0.2519531
182,-42,-2.4375,24.8125,-0.5332031,0.02929688,1.102539,0.01757813,-0.340332,-0.2519531
183,-62.375,2.625,25.8125,-0.5649414,-0.05126953,1.039551,0.02783203,-0.3300781,-0.2490234
184,-83.9375,5.4375,28.9375,-0.5175781,-0.09765625,1.055176,0.02783203,-0.3300781,-0.2490234
185,-97.375,4.8125,30.625,-0.5332031,-0.1943359,1.114746,0.01757813,-0.3251953,-0.246582
186,-97.8125,-0.125,28.875,-0.4619141,-0.2368164,1.122559,0.02539063,-0.3071289,-0.2597656
187,-89.6875,-5.375,20.375,-0.394043,-0.2641602,1.181641,0.02539063,-0.3071289,-0.2597656
188,-74.75,-10.25,7.0625,-0.3422852,-0.3105469,1.264648,0.02783203,-0.2866211,-0.2519531
189,-55,-15.3125,-8.9375,-0.2070313,-0.3452148,1.316406,0.02783203,-0.2866211,-0.2519531
190,-38.6875,-18.9375,-23.0625,-0.1870117,-0.3759766,1.438965,0.01757813,-0.2944336,-0.2387695
191,-27.0625,-19.6875,-32.0625,-0.1035156,-0.3876953,1.442871,0.01757813,-0.2817383,-0.2387695
192,-20.5625,-19.0625,-34.25,-0.05957031,-0.3491211,1.498047,0.01757813,-0.2817383,-0.2387695
193,-17.9375,-15.25,-33.6875,-0.0078125,-0.3642578,1.581055,0.02539063,-0.2763672,-0.2543945
194,-15.25,-10.125,-34.125,0.02734375,-0.3681641,1.628418,0.02539063,-0.2763672,-0.2543945
195,-12.9375,-3,-36.1875,0.08300781,-0.3066406,1.667969,0.02001953,-0.2792969,-0.2436523
196,-11.0625,4.875,-40.75,0.1269531,-0.3178711,1.65625,0.009277344,-0.2792969,-0.2412109
197,-10.125,12.875,-46.1875,0.09912109,-0.2641602,1.652344,0.009277344,-0.2792969,-0.2412109
198,-9.0625,19.1875,-50.25,0.06738281,-0.2138672,1.577148,0.01757813,-0.2763672,-0.246582
199,-8.625,21.625,-52.3125,0.01953125,-0.2021484,1.478027,0.01757813,-0.2763672,-0.2568359
200,-8.3125,20.3125,-54.875,-0.02001953,-0.2250977,1.430664,0.01757813,-0.2763672,-0.2568359
201,-9.25,16.625,-55.1875,-0.05175781,-0.2177734,1.375488,0.00390625,-0.2890625,-0.246582
202,-11.4375,12.5625,-52.375,-0.05957031,-0.2290039,1.379395,0.00390625,-0.2890625,-0.246582
203,-14.25,9.8125,-48.875,0.015625,-0.2216797,1.371582,0.02001953,-0.2792969,-0.2490234
204,-16.5,8.5625,-48.125,0.07128906,-0.2060547,1.399414,0.02539063,-0.2792969,-0.2436523
205,-15.25,9.875,-50.5,0.1469727,-0.2177734,1.39502,0.02539063,-0.2792969,-0.2436523
206,-14.3125,14,-53.125,0.1904297,-0.2714844,1.407227,0.02294922,-0.2817383,-0.246582
207,-13.3125,19.1875,-52.0625,0.1704102,-0.2871094,1.39502,0.02294922,-0.2817383,-0.246582
208,-9.625,23.625,-51.8125,0.1704102,-0.3105469,1.34375,0.02294922,-0.2714844,-0.2490234
209,-2,25.5625,-52.75,0.1308594,-0.3798828,1.324219,0.02783203,-0.2739258,-0.2436523
210,7.4375,25.8125,-53.5625,0.09912109,-0.3759766,1.221191,0.02783203,-0.2739258,-0.2436523
211,16.875,24.25,-53.5625,0.07519531,-0.4067383,1.20166,0.02001953,-0.2792969,-0.2436523
212,27,21.8125,-53.375,0.1030273,-0.402832,1.150391,0.02294922,-0.2841797,-0.2543945
213,35.1875,18.625,-52.25,0.03955078,-0.3603516,1.122559,0.02294922,-0.2841797,-0.2543945
214,41.25,14.9375,-50.375,0.06298828,-0.3139648,1.05127,0.03076172,-0.2866211,-0.2490234
215,45.4375,11.8125,-47.8125,0.06738281,-0.3066406,1.011719,0.03076172,-0.2866211,-0.2490234
216,44.875,9.3125,-41.75,0.04736328,-0.2949219,1.031738,0.03076172,-0.3022461,-0.2597656
217,43.5625,7.625,-35.3125,0.03955078,-0.2485352,0.9882813,0.03613281,-0.3022461,-0.246582
218,42.375,5.625,-32.5,0.06738281,-0.2250977,1.003906,0.03613281,-0.3022461,-0.246582
219,43.625,3.75,-32.6875,0.06298828,-0.1982422,0.9882813,0.03320313,-0.3149414,-0.2519531
220,46.3125,2.1875,-33.4375,0.05517578,-0.2216797,1,0.03320313,-0.3149414,-0.2519531
221,47.8125,2.1875,-32.1875,0.08300781,-0.1982422,0.9804688,0.03076172,-0.3149414,-0.2543945
222,46.625,3.5625,-30.5625,0.05517578,-0.2250977,1.003906,0.02783203,-0.3251953,-0.2543945
223,45.875,5.8125,-30.375,0.08300781,-0.1713867,0.9448242,0.02783203,-0.3251953,-0.2543945
224,44.5,8.5,-31.625,0.08300781,-0.1713867,1.011719,0.03613281,-0.3300781,-0.2387695
225,42.25,12.0625,-32.1875,0.07910156,-0.175293,0.9248047,0.03857422,-0.3354492,-0.2519531
226,40.1875,15.3125,-32.375,0.04345703,-0.1865234,0.9248047,0.03857422,-0.3354492,-0.2519531
227,37.9375,18.1875,-32.0625,0.01953125,-0.1479492,0.8974609,0.03613281,-0.340332,-0.246582
228,36,19.5625,-32.5625,-0.03173828,-0.1518555,0.8339844,0.03613281,-0.340332,-0.246582
229,34.125,18.5,-33.25,-0.04785156,-0.1171875,0.7905273,0.03613281,-0.3457031,-0.2436523
230,32.625,15.25,-34.375,-0.09130859,-0.125,0.7749023,0.03320313,-0.3481445,-0.2519531
231,31.25,10.375,-34.375,-0.1591797,-0.159668,0.7827148,0.03320313,-0.3481445,-0.2519531
232,27.625,6.0625,-30.4375,-0.1235352,-0.1713867,0.7749023,0.03076172,-0.3505859,-0.2597656
233,22.125,1.6875,-25.1875,-0.09130859,-0.175293,0.8022461,0.03076172,-0.3505859,-0.2597656
234,15.6875,-1.6875,-22.8125,-0.04785156,-0.1635742,0.8261719,0.03857422,-0.3608398,-0.2543945
235,8.25,-2.6875,-20.8125,0.03955078,-0.1479492,0.8774414,0.04150391,-0.3505859,-0.2568359
236,1.625,-1.375,-18.9375,0.05517578,-0.1865234,0.956543,0.04150391,-0.3505859,-0.2568359
237,-3,2.875,-17.5625,0.1230469,-0.2021484,1.015625,0.03857422,-0.3505859,-0.2568359
238,-7.375,9.3125,-15.375,0.1308594,-0.2485352,1.043457,0.03613281,-0.3632813,-0.2543945
239,-10.6875,18.875,-13.875,0.1943359,-0.2524414,1.079102,0.03613281,-0.3632813,-0.2543945
240,-11,27.75,-15.625,0.2104492,-0.2675781,1.106934,0.04150391,-0.3505859,-0.2597656
241,-7.0625,34.6875,-19.75,0.1865234,-0.2792969,1.098633,0.04150391,-0.3505859,-0.2597656
242,-2.875,41.0625,-23.5625,0.1508789,-0.2792969,1.031738,0.03857422,-0.3583984,-0.246582
244,-0.625,45.75,-26.8125,0.1069336,-0.2753906,1.003906,0.05224609,-0.3530273,-0.2597656
245,-0.875,47.9375,-27.3125,0.09912109,-0.2407227,0.9804688,0.05224609,-0.3530273,-0.2597656
246,-1.9375,49.25,-26.375,0.07910156,-0.2177734,0.9287109,0.0546875,-0.3632813,-0.2568359
247,-6.75,49.0625,-24.5,0.03515625,-0.1904297,0.8930664,0.0546875,-0.3632813,-0.2568359
248,-11.375,46.875,-21.875,0.003417969,-0.2099609,0.9013672,0.06298828,-0.3632813,-0.2675781
249,-13.25,42.375,-19.875,-0.01171875,-0.2250977,0.9248047,0.06542969,-0.3505859,-0.2568359
250,-12.8125,37.75,-19.0625,-0.02001953,-0.2407227,0.9760742,0.06542969,-0.3505859,-0.2568359
251,-11.25,33.0625,-20.5625,0.04736328,-0.2641602,1.063477,0.07617188,-0.3530273,-0.2651367
252,-7.3125,29.25,-21.8125,0.08691406,-0.3066406,1.150391,0.06835938,-0.355957,-0.2597656
253,-3.625,27.3125,-23.1875,0.1269531,-0.3295898,1.241211,0.06835938,-0.355957,-0.2597656
254,-1.875,31.125,-26.4375,0.1748047,-0.2871094,1.335938,0.08154297,-0.3530273,-0.246582
255,-4.4375,37.75,-27.3125,0.206543,-0.2602539,1.375488,0.08154297,-0.3530273,-0.246582
256,-9.5625,44.9375,-29,0.1826172,-0.2675781,1.355957,0.08935547,-0.355957,-0.2568359
257,-13.3125,48.3125,-29.6875,0.1625977,-0.3178711,1.316406,0.09228516,-0.3662109,-0.2568359
258,-12.375,47.5625,-30.5,0.1030273,-0.3603516,1.280762,0.09228516,-0.3662109,-0.2568359
259,-10.125,43.375,-33.3125,0.06738281,-0.3916016,1.268555,0.09472656,-0.3583984,-0.2597656
260,-5.9375,36.6875,-36.75,0.03955078,-0.402832,1.233398,0.09472656,-0.3583984,-0.2597656
261,-4.3125,30.75,-37.5625,0.0234375,-0.4223633,1.264648,0.09472656,-0.3583984,-0.2597656
262,-6,27.8125,-37.1875,0.03125,-0.418457,1.288574,0.1132813,-0.355957,-0.2675781
263,-14.125,27.8125,-37.3125,0.04345703,-0.3798828,1.249023,0.1132813,-0.355957,-0.2675781
264,-23.875,28.875,-33.9375,0.04736328,-0.3681641,1.284668,0.1132813,-0.355957,-0.2675781
265,-29.25,28.75,-26.1875,0.1108398,-0.3530273,1.328125,0.1132813,-0.3530273,-0.2597656
266,-26.1875,29.625,-20.625,0.1108398,-0.3759766,1.359863,0.1132813,-0.3530273,-0.2597656
267,-18.8125,30.75,-20.875,0.1147461,-0.3798828,1.351563,0.1132813,-0.3530273,-0.2597656
268,-8.125,29.8125,-24.375,0.1508789,-0.3564453,1.387207,0.1132813,-0.3530273,-0.2597656
269,3.9375,27.1875,-29.125,0.09521484,-0.3916016,1.347656,0.1186523,-0.3505859,-0.262207
270,13,24.75,-33.5625,0,-0.402832,1.34375,0.1186523,-0.3505859,-0.262207
271,20.1875,21.0625,-39.8125,-0.02783203,-0.3295898,1.296387,0.1186523,-0.3505859,-0.262207
272,25.875,18.3125,-46.1875,-0.09130859,-0.3334961,1.272949,0.1269531,-0.355957,-0.2651367
273,29.25,12.8125,-50.5,-0.1196289,-0.2910156,1.237305,0.1269531,-0.355957,-0.2651367
274,32.6875,4.9375,-53.9375,-0.1352539,-0.2675781,1.233398,0.1269531,-0.355957,-0.2651367
275,37.375,-4.4375,-58.0625,-0.1391602,-0.2602539,1.213379,0.1293945,-0.3583984,-0.2543945
276,43.3125,-13.25,-62.875,-0.1235352,-0.2641602,1.213379,0.1293945,-0.3583984,-0.2543945
277,48.25,-21.1875,-66.8125,-0.09130859,-0.2675781,1.25293,0.1293945,-0.3583984,-0.2543945
278,51.1875,-28.0625,-70.9375,-0.00390625,-0.2250977,1.256836,0.1269531,-0.3662109,-0.262207
279,51.8125,-32.625,-76.5625,0.04345703,-0.2177734,1.29248,0.1269531,-0.3662109,-0.262207
280,50.5625,-34.6875,-83.5,0.1069336,-0.1713867,1.335938,0.1269531,-0.3662109,-0.262207
281,52.125,-34.25,-90.75,0.1069336,-0.1865234,1.300293,0.1269531,-0.3662109,-0.262207
282,49.3125,-30.75,-99.5625,0.1704102,-0.1635742,1.25293,0.1186523,-0.3789063,-0.2597656
283,40.3125,-27.4375,-106.375,0.1748047,-0.175293,1.229492,0.1132813,-0.3867188,-0.2597656
284,34.1875,-22.9375,-111.875,0.1347656,-0.1787109,1.225098,0.1132813,-0.3867188,-0.2597656
285,34.25,-17.25,-116.3125,0.1269531,-0.1713867,1.177734,0.1054688,-0.3916016,-0.262207
286,28.0625,-7.6875,-106.0625,-0.0078125,-0.2602539,1.063477,0.1162109,-0.4018555,-0.2568359
287,12.875,-5.5625,-106.75,0.1269531,-0.1557617,0.9804688,0.1162109,-0.4018555,-0.2568359
288,13.0625,-4.9375,-108.25,0.04736328,-0.2138672,1.075195,0.1108398,-0.3916016,-0.2568359
289,18.875,-1.625,-110.3125,0.1347656,-0.2368164,1.035645,0.1108398,-0.3916016,-0.2568359
290,9.5625,4.25,-124.8125,0.1625977,-0.1054688,0.9487305,0.121582,-0.3969727,-0.262207
291,-4.0625,7.8125,-137.25,0.06738281,-0.3178711,0.9804688,0.1186523,-0.3994141,-0.2568359
292,15.6875,9.5,-134.0625,0.01123047,-0.3759766,1.015625,0.1186523,-0.3994141,-0.2568359
293,35.4375,7.125,-126.4375,0.0234375,-0.3413086,0.9208984,0.1293945,-0.409668,-0.2543945
294,47.125,5.5625,-123.1875,-0.01611328,-0.2753906,0.8735352,0.1293945,-0.409668,-0.2543945
295,48.375,7.4375,-125.5,0.03955078,-0.2792969,0.8618164,0.1162109,-0.4042969,-0.2597656
296,51.8125,9,-126.3125,0.06298828,-0.2753906,0.8813477,0.1186523,-0.4169922,-0.2597656
297,61.3125,6.4375,-123.625,0.03955078,-0.2641602,0.8974609,0.1186523,-0.4169922,-0.2597656
298,71.4375,7.5625,-117.6875,-0.03173828,-0.2753906,0.8774414,0.1347656,-0.4272461,-0.2490234
299,70.875,20.4375,-115,0.02734375,-0.2250977,0.9130859,0.1401367,-0.4248047,-0.2568359
300,56.5625,30.1875,-119.6875,0.08691406,-0.2138672,0.9169922,0.1401367,-0.4248047,-0.2568359
301,58.5625,63.1875,-122.0625,-0.08740234,-0.3027344,1.517578,0.1323242,-0.4350586,-0.246582
302,88.375,79.375,-112.375,0.1269531,-0.2832031,0.8618164,0.1323242,-0.4350586,-0.246582
303,87.8125,68.8125,-97.75,0.1030273,-0.2329102,0.8061523,0.1401367,-0.4477539,-0.2597656
304,78.75,55.4375,-80.9375,0.07128906,-0.1210938,0.8813477,0.1640625,-0.453125,-0.2387695
305,66.4375,40.75,-69.1875,0.1347656,-0.1210938,0.8378906,0.1640625,-0.453125,-0.2387695
306,50.6875,21,-63.0625,0.1943359,-0.08984375,0.8735352,0.1694336,-0.4658203,-0.2387695
307,32.75,3.6875,-61.125,0.1704102,-0.125,0.9169922,0.1694336,-0.4658203,-0.2387695
309,23.0625,-9.0625,-56.375,0.1108398,-0.1171875,0.9643555,0.1616211,-0.4658203,-0.2436523
310,21.3125,-12.875,-53.875,0.1347656,-0.1401367,0.9882813,0.1694336,-0.4736328,-0.2543945
311,20.75,-17.5,-50.3125,0.1108398,-0.159668,0.9526367,0.1694336,-0.4736328,-0.2543945
312,21.875,-27.25,-44.4375,0.1191406,-0.1635742,0.9960938,0.1694336,-0.4736328,-0.2412109
313,22.0625,-28.75,-43.5625,0.1347656,-0.1787109,1.05127,0.1723633,-0.4707031,-0.2412109
314,21.4375,-24.0625,-48.9375,0.1191406,-0.1635742,1.047363,0.1723633,-0.4707031,-0.2412109
315,24.6875,-16.875,-55.5625,0.1547852,-0.159668,1.075195,0.1616211,-0.4760742,-0.246582
316,38.25,-10.4375,-63.6875,0.1665039,-0.09765625,1.130371,0.1616211,-0.4760742,-0.246582
317,57.75,0,-74.75,0.1469727,-0.02832031,1.158203,0.1723633,-0.4785156,-0.2436523
318,67.25,17.4375,-90.1875,0.1108398,-0.04736328,1.154297,0.1748047,-0.4912109,-0.2358398
319,63.125,21.5625,-97.5,0.1308594,-0.07861328,1.114746,0.1748047,-0.4912109,-0.2358398
320,59.125,9.3125,-97.625,0.1547852,-0.07470703,1.138184,0.1777344,-0.4990234,-0.2358398
321,59.625,-0.375,-94.5,0.1191406,-0.1132813,1.169922,0.1777344,-0.4990234,-0.2358398
322,51,-5.375,-89.5,0.08300781,-0.1132813,1.185547,0.1748047,-0.5014648,-0.2387695
323,46.875,-5.5,-85.8125,0.04736328,-0.159668,1.177734,0.1884766,-0.5092773,-0.2387695
324,52.125,-2.625,-84.0625,0.06738281,-0.1328125,1.154297,0.1884766,-0.5092773,-0.2387695
325,62.4375,-1.5625,-87.0625,0.09912109,-0.159668,1.138184,0.1723633,-0.5146484,-0.2387695
326,73.125,5.0625,-90.0625,0.02734375,-0.2060547,1.079102,0.1884766,-0.5219727,-0.230957
327,76.875,9.8125,-85.5,0.0234375,-0.159668,1,0.1884766,-0.5219727,-0.230957
328,67.625,1.9375,-77,-0.01611328,-0.1054688,0.9804688,0.1855469,-0.5195313,-0.2226563
329,50.4375,-6,-70.8125,-0.01611328,-0.04003906,1,0.1855469,-0.5195313,-0.2226563
330,22.6875,10.625,-74.375,0.015625,-0.01269531,1.067383,0.190918,-0.5400391,-0.2280273
331,-8.875,36.1875,-89.0625,0.04345703,0.009765625,1.14209,0.1933594,-0.5195313,-0.2255859
332,-29.5625,86.5625,-103.125,0.01953125,0.001953125,1.264648,0.1933594,-0.5195313,-0.2255859
333,-53.375,134.3125,-108.9375,0.05126953,0.06005859,1.146484,0.2094727,-0.5249023,-0.2255859
334,-83.9375,156.375,-113,0.1030273,0.04833984,1.106934,0.2094727,-0.5249023,-0.2255859
335,-98.3125,156.875,-118,0.1191406,0.04833984,1.134277,0.2255859,-0.5170898,-0.2333984
336,-104.1875,148.75,-121.3125,0.0234375,-0.04003906,1.150391,0.2602539,-0.5014648,-0.2280273
337,-106.4375,168.0625,-123.1875,0.05126953,-0.09375,1.233398,0.2602539,-0.5014648,-0.2280273
338,-120.0625,193.75,-121.9375,0.05517578,-0.1674805,1.29248,0.2709961,-0.480957,-0.2226563
339,-115.5625,156.4375,-125.6875,0.05908203,-0.1054688,1.245117,0.3056641,-0.4736328,-0.2202148
340,-72,112.4375,-149.0625,-0.01611328,-0.2714844,1.387207,0.3056641,-0.4736328,-0.2202148
341,-14.5625,90.875,-144.3125,-0.08740234,-0.3876953,1.276855,0.3085938,-0.4658203,-0.2255859
342,11.3125,53.8125,-127,-0.21875,-0.3837891,1.11084,0.3085938,-0.4658203,-0.2255859
343,15.25,23.5625,-112.625,-0.2070313,-0.3413086,1.023926,0.3325195,-0.4506836,-0.2226563
344,-3.8125,6.1875,-105.5625,-0.1152344,-0.1787109,1.003906,0.3325195,-0.453125,-0.2177734
345,-22.375,-7.3125,-109.625,0.003417969,-0.1132813,0.9960938,0.3325195,-0.453125,-0.2177734
346,-15.25,-20.8125,-114.4375,-0.00390625,-0.1557617,1.185547,0.3432617,-0.4477539,-0.2177734
347,19.625,-38.375,-112.625,0,-0.2485352,1.296387,0.3432617,-0.4477539,-0.2177734
348,46,-48.125,-110.5,0.01953125,-0.1943359,1.260742,0.3378906,-0.4404297,-0.2202148
349,41.3125,-51.75,-106.875,0.015625,-0.175293,1.193848,0.3271484,-0.4375,-0.2124023
350,26.25,-60.8125,-102.25,0.007324219,-0.1518555,1.181641,0.3271484,-0.4375,-0.2124023
351,12.75,-68.875,-99.625,-0.04003906,-0.09765625,1.205566,0.3325195,-0.4326172,-0.2202148
352,4.8125,-67.5625,-103.25,-0.02783203,-0.1132813,1.25293,0.3164063,-0.4375,-0.2177734
353,-0.875,-69.8125,-101.0625,-0.01611328,-0.1362305,1.205566,0.3164063,-0.4375,-0.2177734
354,-5.4375,-72,-101.3125,0.007324219,-0.1210938,1.20166,0.3217773,-0.4301758,-0.2255859
355,-8.75,-65,-101.6875,0.015625,-0.125,1.233398,0.3217773,-0.4301758,-0.2255859
356,-11.625,-43.875,-111.5,0.1665039,-0.07861328,1.375488,0.3110352,-0.4272461,-0.2202148
357,-3.625,-11.375,-132.1875,0.2265625,-0.04394531,1.308105,0.3110352,-0.4272461,-0.2387695
358,4.375,22.5625,-154.5625,0.1987305,-0.05126953,1.347656,0.3110352,-0.4272461,-0.2387695
359,6.4375,98.5,-195.4375,0.3139648,0.152832,1.233398,0.3139648,-0.4223633,-0.2226563
360,-26.6875,205.6875,-245.6875,0.6801758,0.2612305,1.458496,0.3139648,-0.4223633,-0.2226563
361,-66.9375,357.9375,-314.1875,0.9667969,0.5200195,1.754883,0.3349609,-0.3994141,-0.2202148
362,-118.6875,481.6875,-378.375,0.3217773,0.001953125,2.284668,0.3696289,-0.3837891,-0.2070313
363,107.75,325.625,-396.5625,-0.8198242,-0.6196289,1.592773,0.3696289,-0.3837891,-0.2070313
364,317.25,82,-372.6875,-0.8041992,-1.268555,0.9604492,0.409668,-0.3530273,-0.1884766
365,345.5625,13.25,-257,-0.6567383,-0.9248047,0.5849609,0.434082,-0.3710938,-0.175293
366,200.625,-25.0625,-171,-0.668457,-0.402832,-0.05859375,0.434082,-0.3710938,-0.175293
367,75.5,-88.4375,-135.0625,-0.5371094,-0.2949219,0.015625,0.4311523,-0.3813477,-0.1860352
368,34.8125,-150.6875,-81.125,-0.4379883,-0.4609375,0.3676758,0.4311523,-0.3813477,-0.1860352
369,42.6875,-175.3125,-32.9375,-0.4536133,-0.3256836,0.7036133,0.4257813,-0.3837891,-0.1914063
370,58.9375,-178.5,3.0625,-0.3461914,-0.2832031,0.8022461,0.4018555,-0.3837891,-0.1962891
371,84.375,-172.125,38.875,-0.3623047,-0.2060547,0.9248047,0.4018555,-0.3837891,-0.1962891
372,110.5,-163.25,58.875,-0.2944336,0.02929688,1.019531,0.3911133,-0.3867188,-0.1962891
374,116.625,-161.1875,61.25,-0.2348633,0.1835938,1.043457,0.3911133,-0.3867188,-0.1962891
375,105.4375,-158.6875,41.6875,-0.2509766,0.3652344,1.063477,0.3642578,-0.4018555,-0.2094727
376,95.75,-153.5625,7.9375,-0.1713867,0.4116211,1.11084,0.3457031,-0.4248047,-0.2202148
377,71.8125,-146.8125,-47.9375,0.03955078,0.4853516,1.245117,0.3457031,-0.4248047,-0.2202148
378,45.4375,-137.9375,-88.125,0.04345703,0.2299805,1.256836,0.3271484,-0.4301758,-0.230957
379,35.6875,-109.9375,-103.8125,0.06298828,0.07568359,1.415039,0.3217773,-0.4301758,-0.2177734
380,44.8125,-71.25,-106,0.01953125,-0.03613281,1.501953,0.3217773,-0.4301758,-0.2177734
381,64.0625,-37,-88.8125,-0.0078125,-0.2060547,1.40332,0.3085938,-0.4301758,-0.2226563
382,82.5625,-28.75,-58.1875,-0.01171875,-0.2060547,1.217285,0.3085938,-0.4301758,-0.2226563
383,83.5,-34.625,-30.375,0.01123047,-0.1401367,1.023926,0.3056641,-0.4326172,-0.230957
384,65.8125,-51.875,-14.25,0.08300781,-0.01660156,0.9169922,0.3110352,-0.4350586,-0.230957
385,46,-69.6875,-10.3125,0.1230469,0.07958984,1.011719,0.3110352,-0.4350586,-0.230957
386,48.375,-88.625,-11.8125,0.04736328,0.1723633,1.154297,0.300293,-0.4428711,-0.2280273
387,45.5,-93.5,-23.4375,0.1547852,0.2573242,1.249023,0.300293,-0.4428711,-0.2280273
388,60.6875,-73.1875,-16.4375,0.3735352,-0.847168,2.181641,0.2949219,-0.453125,-0.2358398
389,32,-38.625,67.9375,0.05517578,0.1333008,1.169922,0.2763672,-0.4633789,-0.2333984
390,51.25,-44.625,10.5,0.6401367,-0.05126953,1.644043,0.2763672,-0.4633789,-0.2333984
391,26.125,-82.25,-60.1875,0.1704102,0.1796875,1.233398,0.2709961,-0.4658203,-0.230957
392,-22.5625,-54.375,-39.625,0.3217773,-0.109375,1.288574,0.2739258,-0.4736328,-0.2358398
393,2.75,-21.1875,5.9375,0.4213867,-0.2368164,1.197754,0.2739258,-0.4736328,-0.2358398
394,-23.3125,-6.25,13.625,0.2783203,-0.01660156,1.205566,0.265625,-0.4682617,-0.2333984
395,-26.9375,3.3125,37.9375,0.4135742,-0.1054688,1.126465,0.265625,-0.4682617,-0.2333984
396,-38.25,10.125,44.5,0.3774414,0.1567383,1.059082,0.2524414,-0.4658203,-0.2226563
397,-55.0625,35.75,43,-0.1591797,0.3999023,1.450684,0.2578125,-0.4682617,-0.2280273
398,-58.0625,89.6875,15.3125,0.234375,0.6474609,1.193848,0.2578125,-0.4682617,-0.2280273
399,-86.5,100.5,-13.0625,-0.1831055,0.1411133,1.213379,0.2739258,-0.4555664,-0.2280273
400,-100.3125,91.75,-3.5,-0.1074219,-0.09375,1.027832,0.2739258,-0.4555664,-0.2280273
401,-104.4375,55.875,-10.3125,-0.2270508,-0.2021484,1.035645,0.2841797,-0.4477539,-0.2333984
402,-99.8125,27.5625,-0.8125,-0.08740234,-0.1328125,1.05127,0.2895508,-0.4272461,-0.2255859
403,-82.5625,12,1,0.3256836,-0.6079102,1.086914,0.2895508,-0.4272461,-0.2255859
404,-16,79,-39.625,0.222168,-0.2871094,1.324219,0.2978516,-0.4223633,-0.2280273
405,-22.125,79.375,-20.25,-0.3344727,-0.1557617,1.027832,0.3032227,-0.4199219,-0.2255859
406,3.4375,28.8125,-17.3125,-0.08740234,0.009765625,1.11084,0.3032227,-0.4199219,-0.2255859
407,25.8125,2.3125,1.75,-0.05175781,0.06396484,1.102539,0.3032227,-0.4199219,-0.2255859
408,22.875,8.5625,51.1875,-0.02392578,0.07958984,1.083008,0.3032227,-0.4199219,-0.2255859
409,-3.9375,19.5,113.125,0.09912109,0.152832,1.011719,0.3056641,-0.4199219,-0.230957
410,-31.125,35.375,166.375,0.1865234,0.09082031,0.9960938,0.3056641,-0.4199219,-0.230957
411,-57.25,67.5625,212.875,0.2182617,0.04101563,1.387207,0.3056641,-0.4199219,-0.230957
412,-25.3125,165.5,236.375,0.1586914,0.01757813,1.786621,0.3164063,-0.4272461,-0.2255859
413,-44.6875,235.875,247.1875,-0.03173828,-0.004882813,0.8696289,0.3164063,-0.4272461,-0.2255859
414,-151.25,199.875,278.3125,0.2783203,-0.09765625,0.7314453,0.3164063,-0.4272461,-0.2255859
415,-205.125,78.3125,152.375,0.8911133,0.5703125,1.031738,0.3457031,-0.4248047,-0.2226563
416,-245.6875,57.1875,24.8125,0.7041016,0.1992188,1.379395,0.3457031,-0.4248047,-0.2226563
417,-214.375,94.125,-28.5625,0.4731445,-0.05908203,1.652344,0.3457031,-0.4248047,-0.2226563
418,-152.3125,112.0625,-31.8125,0.2026367,-0.2675781,1.320313,0.3588867,-0.3891602,-0.2124023
419,-110.9375,74.0625,-10.875,-0.01611328,-0.434082,0.940918,0.3588867,-0.3891602,-0.2124023
420,-96.8125,14.125,33.375,-0.1791992,-0.5883789,0.8496094,0.3588867,-0.3891602,-0.2124023
421,-87.5,-42.4375,73.625,-0.09130859,-0.5268555,0.9287109,0.3588867,-0.3891602,-0.2124023
422,-66.75,-78.1875,105.1875,-0.03173828,-0.418457,1.063477,0.3696289,-0.3632813,-0.2045898
423,-41.6875,-97.5,125,-0.04785156,-0.2290039,1.20166,0.3696289,-0.3632813,-0.2045898
424,-6.9375,-104.875,130.625,-0.246582,-0.109375,1.304199,0.3696289,-0.3632813,-0.2045898
425,21.875,-104.6875,118.125,-0.3862305,-0.05517578,1.3125,0.3457031,-0.3608398,-0.2226563
426,28,-113.75,97.8125,-0.8515625,-0.04003906,1.126465,0.3457031,-0.3608398,-0.2226563
427,25.3125,-124.5,94.3125,-1.162109,-0.125,1.122559,0.3457031,-0.3608398,-0.2226563
428,23.5625,-134.9375,99.5625,-1.166016,-0.2524414,1.166016,0.3188477,-0.3764648,-0.2333984
429,16.9375,-127.5,68.1875,-1.257813,-0.004882813,1.154297,0.3188477,-0.3764648,-0.2333984
430,1.9375,-103.0625,38.0625,-1.293457,-0.004882813,1.197754,0.3188477,-0.3764648,-0.2333984
431,-11.875,-79.125,5.625,-1.257813,0.005859375,1.221191,0.2949219,-0.3891602,-0.2358398
432,-13.3125,-164.5625,66.8125,1.300781,-0.8823242,1.482422,0.2949219,-0.3891602,-0.2358398
433,-75.75,47.5,166.0625,0.4375,-1.438477,0.3676758,0.2841797,-0.3813477,-0.2412109
434,-93.375,-13.625,258.375,0.2026367,-1.009766,0.2490234,0.2841797,-0.3813477,-0.2412109
435,-26.625,-169.9375,295.5,0.4692383,-0.9750977,-0.08251953,0.2739258,-0.3735352,-0.2333984
436,26.125,-326.6875,257.1875,0.6083984,-0.4570313,0.5375977,0.2548828,-0.3891602,-0.2490234
437,-22.6875,-372.5,165,0.6123047,0.1298828,0.7470703,0.2548828,-0.3891602,-0.2490234
439,-96.375,-369.125,92.75,0.6484375,0.222168,1.11084,0.2094727,-0.3867188,-0.2490234
440,-163.25,-350.3125,48.6875,0.5644531,0.2802734,1.328125,0.1694336,-0.3735352,-0.2543945
441,-208.0625,-307.75,6.25,0.5727539,0.3188477,1.691895,0.1694336,-0.3735352,-0.2543945
442,-198.625,-226.5625,-58.5625,0.5449219,0.02929688,1.324219,0.1240234,-0.3505859,-0.2651367
443,-184,-164.375,-125.1875,0.465332,-0.1904297,1.260742,0.1240234,-0.3505859,-0.2651367
444,-149.875,-99.9375,-165.3125,0.3579102,-0.4262695,1.36377,0.1108398,-0.3300781,-0.2651367
445,-100.1875,-10.3125,-165.0625,0.2978516,-0.6425781,1.470215,0.08935547,-0.3149414,-0.2543945
446,-25.8125,88.625,-113.0625,0.3100586,-0.8398438,1.608887,0.08935547,-0.3149414,-0.2543945
447,32.25,177.125,-47.6875,0.4052734,-0.777832,1.521973,0.1054688,-0.3071289,-0.2651367
448,68.5625,241.625,-9.5625,0.4492188,-0.8398438,1.65625,0.1054688,-0.3071289,-0.2651367
449,121.125,323.8125,129,0.5131836,-0.8164063,1.031738,0.1347656,-0.3095703,-0.2543945
450,14.1875,316.125,126.3125,0.7475586,-0.1713867,0.7548828,0.1640625,-0.3198242,-0.262207
451,18.5625,265.25,78.0625,0.7836914,0.06005859,0.6757813,0.1640625,-0.3198242,-0.262207
452,48.3125,181.9375,24.1875,0.6401367,-0.01269531,0.5454102,0.2041016,-0.3378906,-0.2543945
453,46.375,109.0625,-3.3125,0.5366211,-0.2485352,0.8378906,0.2177734,-0.340332,-0.2597656
454,34.4375,71.375,7.1875,0.3857422,-0.4648438,1.173828,0.2177734,-0.340332,-0.2597656
455,23.875,57.375,35.5,0.2460938,-0.4379883,1.399414,0.2338867,-0.340332,-0.2543945
456,13.5625,47.5625,58,0.02734375,-0.2563477,1.39502,0.2338867,-0.340332,-0.2543945
457,6.9375,29.0625,60.4375,-0.1992188,0.01757813,1.355957,0.2363281,-0.3505859,-0.2519531
458,4.875,7.8125,41.375,-0.3979492,0.08740234,1.43457,0.2338867,-0.3457031,-0.246582
459,17.25,5,27.75,-0.5849609,0.3110352,1.671875,0.2338867,-0.3457031,-0.246582
460,27.6875,18.875,3,-0.7246094,0.1796875,1.648438,0.2363281,-0.3505859,-0.2519531
461,37.5,41.3125,-18.375,-0.855957,0.1875,1.608887,0.2363281,-0.3505859,-0.2519531
462,45,63.6875,-36.875,-0.7285156,0.2802734,1.54541,0.2470703,-0.3481445,-0.246582
463,45.25,81.9375,-69.5,-0.9511719,0.2109375,1.272949,0.2548828,-0.3530273,-0.2543945
464,34.5,95.6875,-91.75,-0.9790039,0.2456055,1.130371,0.2548828,-0.3530273,-0.2543945
465,22.8125,99.0625,-117.875,-0.9394531,0.2109375,0.9052734,0.2578125,-0.355957,-0.2436523
466,14.25,86.6875,-141,-0.9311523,0.1723633,0.699707,0.2739258,-0.355957,-0.2387695
467,12.1875,65.25,-154.875,-0.8754883,0.1298828,0.6166992,0.2739258,-0.355957,-0.2387695
468,12.3125,44.875,-164.375,-0.7441406,0.08740234,0.5654297,0.2817383,-0.3432617,-0.2358398
469,9.625,26.25,-168.9375,-0.5932617,-0.008789063,0.5493164,0.2817383,-0.3432617,-0.2358398
470,6.4375,6,-164.5,-0.4536133,-0.04394531,0.5058594,0.2895508,-0.3505859,-0.246582
471,5.4375,-20,-153.1875,-0.2983398,-0.2177734,0.4741211,0.2895508,-0.3530273,-0.2358398
472,-3.8125,-40.875,-145.0625,-0.1630859,-0.07080078,0.6005859,0.2895508,-0.3530273,-0.2358398
473,-11.625,-53.625,-126.125,-0.03173828,-0.1289063,0.5019531,0.2924805,-0.3457031,-0.2436523
474,-17.25,-71.5,-110.0625,0.06738281,-0.1713867,0.5454102,0.2924805,-0.3457031,-0.2436523
475,-17.9375,-100.9375,-104.75,3.068359,-0.2407227,0.3994141,0.2763672,-0.3378906,-0.2387695
476,-27.375,-140.25,-98.6875,0.5327148,-0.05908203,0.5258789,0.2685547,-0.3276367,-0.2436523
477,-23.3125,-167.625,-98.3125,0.7001953,-0.1210938,0.6245117,0.2685547,-0.3276367,-0.2436523
478,-5.0625,-185.6875,-97.25,0.9189453,-0.1328125,0.7983398,0.2416992,-0.3251953,-0.2543945
479,22.9375,-191.625,-101.5625,1.022461,-0.1787109,1.023926,0.230957,-0.3276367,-0.2543945
480,45.75,-179.0625,-105.5,1.105957,-0.1943359,1.094727,0.230957,-0.3276367,-0.2543945
481,59.25,-158.1875,-97.1875,1.085938,-0.2832031,1.015625,0.1933594,-0.3227539,-0.2597656
482,62.5,-148.125,-80.4375,0.8271484,-0.4145508,1.059082,0.1933594,-0.3227539,-0.2597656
483,113.8125,-135.5,-24.6875,0.7558594,-0.4995117,1.118652,0.1801758,-0.3330078,-0.2543945
484,110.5,-124.1875,5.375,0.9467773,-0.2485352,0.8144531,0.1723633,-0.3378906,-0.2597656
485,89.5,-128.6875,15.375,1.26123,-0.1635742,0.8618164,0.1723633,-0.3378906,-0.2597656
486,298.375,327.5625,-49.25,5.296875,0.1181641,7.63623,0.1455078,-0.3530273,-0.2651367
487,279.0625,246.8125,-60.1875,0.09912109,-0.09765625,-0.6479492,0.1455078,-0.3530273,-0.2651367
488,185.5,-13.0625,-3.4375,0.409668,-0.3413086,-0.1103516,0.1831055,-0.3916016,-0.262207
489,96.3125,39.1875,21.3125,0.7875977,-0.02832031,1.509766,0.1855469,-0.4223633,-0.2597656
490,96.875,29.0625,30.0625,0.2739258,0.02929688,0.6640625,0.1855469,-0.4223633,-0.2597656
491,101.5,-14.6875,30.125,0.1625977,0.02929688,0.9448242,0.1987305,-0.4169922,-0.2543945
492,89.375,-18.25,37.0625,0.08300781,0.09472656,1.25293,0.1884766,-0.4350586,-0.2490234
493,63.0625,-12.1875,37.8125,0.01953125,0.1064453,1.181641,0.1884766,-0.4350586,-0.2490234
494,21.5,14.8125,17.3125,-0.3344727,0.2495117,1.79834,0.1884766,-0.4506836,-0.2333984
495,-36.625,114.4375,-55.625,-0.625,0.4775391,0.9091797,0.1884766,-0.4506836,-0.2333984
496,-83.1875,244.25,-106.625,-0.05566406,0.3500977,1.885254,0.1855469,-0.4375,-0.2519531
497,-79.4375,278.625,-151.625,0.234375,0.08740234,0.9960938,0.2202148,-0.4350586,-0.246582
498,-86.6875,226.125,-183.1875,2.212402,-0.2177734,1.537598,0.2202148,-0.4350586,-0.246582
499,-83.1875,222.125,-176.4375,0.3657227,0.02148438,0.9013672,0.2548828,-0.4248047,-0.2519531
500,-67.25,232.0625,-157.125,0.3417969,-0.05126953,1.075195,0.2548828,-0.4248047,-0.2519531
501,-60.5625,304.0625,-154.5625,0.0234375,0.04101563,1.162109,0.2895508,-0.4018555,-0.2436523
502,-102.5625,378.1875,-146.25,0.007324219,0.1606445,0.9526367,0.3139648,-0.394043,-0.2255859
504,-128,394.875,-158.9375,0.1987305,-0.1015625,1.086914,0.3139648,-0.394043,-0.2255859
505,-57.875,280.0625,-152.9375,-0.4575195,-1.272461,2.229492,0.3696289,-0.3735352,-0.2177734
506,78.375,-128.6875,-85.75,-0.1391602,-0.4262695,-0.1933594,0.3857422,-0.3583984,-0.1992188
507,-29.1875,-101.5,-2.3125,0.3300781,-0.03613281,1.415039,0.3857422,-0.3583984,-0.1992188
508,-3.3125,-64.25,24.5,0.1704102,-0.03222656,1.146484,0.375,-0.3710938,-0.1992188
509,-1.5,-60.9375,23.9375,-0.04394531,-0.1401367,1.059082,0.375,-0.3710938,-0.1992188
510,-26.25,-70.6875,37.75,-0.1513672,-0.2641602,1.079102,0.3725586,-0.3608398,-0.2226563
511,-51.25,-70.25,52.8125,-0.05566406,-0.1674805,1.122559,0.3564453,-0.3662109,-0.2148438
512,-60.0625,-58.1875,45.9375,0.02734375,-0.04736328,1.205566,0.3564453,-0.3662109,-0.2148438
513,3.9375,65.125,10.125,-0.01611328,0.1064453,1.264648,0.3540039,-0.3686523,-0.2226563
514,-37.0625,127.8125,38.625,-0.4018555,-0.05126953,1.304199,0.3540039,-0.3686523,-0.2226563
515,-67.875,2.8125,56.75,-0.190918,-0.4916992,0.8891602,0.3588867,-0.3608398,-0.2177734
516,-4,-45.6875,32.25,0.04736328,-0.08251953,1.213379,0.3696289,-0.3432617,-0.2045898
517,-12.3125,-17.8125,14.125,0.1469727,-0.109375,1.205566,0.3696289,-0.3432617,-0.2045898
518,-31.125,0,3.375,0.1191406,-0.2021484,1.14209,0.3642578,-0.3583984,-0.2148438
519,-38.1875,-6.3125,-1.375,0.09521484,-0.2485352,1.177734,0.3564453,-0.3530273,-0.2148438
520,-37.375,26.9375,-18.75,0.465332,-0.03222656,1.328125,0.3564453,-0.3530273,-0.2148438
521,-45.875,48.3125,-57.25,0.2739258,-0.06689453,1.264648,0.3588867,-0.3481445,-0.2202148
522,-66.375,26.125,-88.375,-0.1035156,-0.07861328,1.007813,0.3588867,-0.3481445,-0.2202148
523,-84.1875,4,-97.8125,-0.3305664,-0.175293,1.284668,0.3725586,-0.3432617,-0.2124023
524,-70.5,1.8125,-93.75,-0.5371094,-0.1943359,1.256836,0.3696289,-0.3276367,-0.2094727
525,-58.125,-12.5625,-80.8125,-0.668457,-0.2446289,1.173828,0.3696289,-0.3276367,-0.2094727
526,-38.0625,-32.5,-65.625,-0.5849609,-0.2675781,1.249023,0.3618164,-0.3227539,-0.2202148
527,-10.0625,-44.875,-55.625,-0.4736328,-0.2949219,1.268555,0.3618164,-0.3227539,-0.2202148
528,18.5625,-53.75,-54.6875,-0.3344727,-0.2368164,1.225098,0.3725586,-0.3095703,-0.2148438
529,42.3125,-63.125,-61.0625,-0.1274414,-0.2524414,1.229492,0.3642578,-0.3046875,-0.2177734
530,63.375,-70.25,-68.8125,-0.05566406,-0.2329102,1.209473,0.3642578,-0.3046875,-0.2177734
531,80,-73.1875,-72.0625,0.0234375,-0.2524414,1.205566,0.3540039,-0.3125,-0.2280273
532,87.5,-72.0625,-67.0625,0.03125,-0.2446289,1.146484,0.3378906,-0.3149414,-0.2255859
533,83.875,-71.1875,-53.6875,0.04736328,-0.2177734,1.138184,0.3378906,-0.3149414,-0.2255859
534,68.3125,-70.375,-38.5625,0.007324219,-0.2021484,1.126465,0.3295898,-0.3276367,-0.2280273
535,46.4375,-67.5,-29.875,-0.01171875,-0.1557617,1.106934,0.3295898,-0.3276367,-0.2280273
536,25.4375,-64,-29.375,0.003417969,-0.1401367,1.11084,0.3271484,-0.3173828,-0.230957
537,11.1875,-63.0625,-34,-0.03173828,-0.1289063,1.122559,0.3085938,-0.3378906,-0.230957
538,8.125,-62.6875,-40.375,-0.01171875,-0.09375,1.094727,0.3085938,-0.3378906,-0.230957
539,11.875,-64.0625,-45.75,0.01953125,-0.1171875,1.086914,0.3110352,-0.3354492,-0.2387695
540,16.8125,-66.6875,-48.125,0.04345703,-0.1328125,1.094727,0.3110352,-0.3354492,-0.2387695
541,19.0625,-68,-45.9375,0.08300781,-0.159668,1.094727,0.3085938,-0.3330078,-0.2387695
542,15.8125,-67.875,-38.4375,0.1269531,-0.1943359,1.047363,0.2924805,-0.3251953,-0.2333984
543,9.0625,-68.125,-29.4375,0.1787109,-0.1787109,1.079102,0.2924805,-0.3251953,-0.2333984
544,2.25,-66.8125,-24,0.1865234,-0.1713867,1.059082,0.2924805,-0.340332,-0.2412109
545,-2.125,-66.3125,-24.5625,0.1987305,-0.1518555,1.079102,0.2841797,-0.3251953,-0.2490234
546,-2.3125,-65.3125,-29.25,0.1865234,-0.1674805,1.086914,0.2841797,-0.3251953,-0.2490234
547,4.25,-61.375,-33.6875,0.1826172,-0.159668,1.150391,0.2578125,-0.3300781,-0.2412109
548,15,-57,-35.5625,0.1704102,-0.1635742,1.162109,0.2578125,-0.3300781,-0.2412109
549,25.125,-53,-36,0.2104492,-0.144043,1.138184,0.2709961,-0.340332,-0.2519531
550,-33.3125,-93.625,-44.4375,0.1943359,0.3110352,0.2768555,0.2548828,-0.3378906,-0.246582
551,-63.9375,-68.1875,-67.1875,0.6206055,-0.01269531,1.549316,0.2548828,-0.3378906,-0.246582
552,-57.3125,-40.8125,-76.4375,0.453125,-0.07470703,0.9604492,0.2470703,-0.3276367,-0.246582
553,-125.25,-127.0625,-63.5625,0.2543945,-0.3256836,1.407227,0.2470703,-0.3276367,-0.246582
554,-148.6875,-167.125,-26.3125,0.3017578,-0.4492188,1.14209,0.2363281,-0.3173828,-0.246582
555,-146.6875,-128.0625,3.375,0.2939453,-0.2329102,1.086914,0.2255859,-0.2993164,-0.2490234
556,-120.375,-74.375,15.5625,0.1508789,-0.1171875,1.019531,0.2255859,-0.2993164,-0.2490234
557,-70.25,-29.3125,30.625,0.007324219,-0.2021484,1.221191,0.2255859,-0.2993164,-0.2490234
558,-1.1875,25.5625,39.8125,0.08691406,-0.175293,1.138184,0.2041016,-0.2739258,-0.2519531
559,55.875,61.75,43.875,0.1665039,-0.3178711,1.185547,0.2041016,-0.2739258,-0.2519531
560,98.875,75.125,34.375,0.2104492,-0.2832031,1.189941,0.2041016,-0.2739258,-0.2519531
561,125.5625,82.625,5.125,0.222168,-0.2021484,1.213379,0.2041016,-0.2739258,-0.2519531
562,151.1875,100.5625,-35,0.1308594,-0.1635742,1.316406,0.2177734,-0.2890625,-0.2543945
563,203.1875,86.5625,-63.8125,-0.07177734,-0.2290039,1.158203,0.2177734,-0.2890625,-0.2543945
564,238,-6.0625,-68.25,-0.1552734,-0.2368164,0.8774414,0.2177734,-0.2890625,-0.2543945
565,246.375,-66.0625,-44.6875,-0.1791992,-0.2138672,0.9448242,0.2363281,-0.3378906,-0.2412109
566,245.25,-87.6875,-16.875,0.05126953,-0.1328125,1.185547,0.2363281,-0.3378906,-0.2412109
567,222.8125,-89.125,-0.75,0.2026367,-0.0009765625,0.972168,0.2363281,-0.3378906,-0.2412109
569,191.5,-91.3125,12.5625,0.2265625,0.02929688,1.047363,0.2094727,-0.394043,-0.2490234
570,171.6875,-88.4375,31.75,0.1665039,0.05615234,1.059082,0.2094727,-0.394043,-0.2490234
571,147.3125,-85.8125,43.9375,0.262207,0.2299805,0.956543,0.2094727,-0.394043,-0.2490234
572,112.0625,-75.6875,38.125,0.3496094,0.2880859,1.039551,0.1933594,-0.4272461,-0.2412109
573,75.3125,-51.875,16.4375,0.4453125,0.4311523,1.023926,0.1933594,-0.4272461,-0.2412109
574,32.3125,-28.0625,-4.6875,0.4770508,0.3999023,1.003906,0.1933594,-0.4272461,-0.2412109
575,-7.4375,-8.8125,-7.5625,0.4291992,0.2260742,1.019531,0.1933594,-0.4272461,-0.2412109
576,-29.625,6.75,9.125,0.3935547,0.1333008,1.086914,0.1748047,-0.4404297,-0.2490234
577,-37.5625,20.1875,24.25,0.3417969,0.07958984,1.154297,0.1855469,-0.4404297,-0.2436523
578,-41.1875,28.875,26.25,0.3139648,0.07177734,1.094727,0.1855469,-0.4404297,-0.2436523
579,-45.3125,33.6875,20.0625,0.3100586,0.07958984,1.079102,0.1748047,-0.4326172,-0.2436523
580,-46.0625,36.5625,13.125,0.2939453,0.001953125,1.158203,0.1831055,-0.4326172,-0.2490234
581,-40,34.625,7.875,0.2861328,-0.06298828,1.130371,0.1831055,-0.4326172,-0.2490234
582,-26.125,24.0625,3.375,0.262207,-0.02050781,1.130371,0.1987305,-0.4301758,-0.2436523
583,-5,5.6875,2.5,0.2382813,-0.02441406,1.071289,0.1987305,-0.4301758,-0.2436523
584,21.375,-15.1875,6.9375,0.2026367,-0.04003906,1.071289,0.1933594,-0.4272461,-0.2543945
585,38.125,-29.1875,11.0625,0.2822266,0.04833984,1.083008,0.1933594,-0.4248047,-0.2436523
586,38.1875,-36.8125,14.1875,0.3217773,0.05224609,1.063477,0.1933594,-0.4248047,-0.2436523
587,28,-35.9375,15.0625,0.3935547,0.07958984,1.063477,0.1962891,-0.4375,-0.2387695
588,14.9375,-30.375,11.875,0.4770508,0.1220703,1.031738,0.1962891,-0.4375,-0.2387695
589,4.5625,-24.5625,6.9375,0.4770508,0.137207,1.027832,0.1831055,-0.4375,-0.2597656
590,1.5,-19.25,2.375,0.5449219,0.1064453,1.059082,0.1748047,-0.4375,-0.2568359
591,4,-15.625,-0.5625,0.5488281,0.1333008,1.019531,0.1748047,-0.4375,-0.2568359
592,9.4375,-13,-3.625,0.5366211,0.1220703,1.035645,0.1831055,-0.4326172,-0.2519531
593,13.0625,-10.6875,-4.625,0.5170898,0.1220703,1.043457,0.1801758,-0.4272461,-0.246582
594,16.0625,-8.4375,-3.8125,0.4848633,0.1489258,1.071289,0.1801758,-0.4272461,-0.246582
595,17.75,-8.0625,-1,0.4492188,0.1220703,1.007813,0.1669922,-0.4375,-0.2543945
596,19.25,-9.875,0.6875,0.453125,0.1489258,1.007813,0.1669922,-0.4375,-0.2543945
597,21.875,-12.375,0.875,0.4375,0.1992188,1,0.1777344,-0.4453125,-0.2387695
598,24,-15.5625,0.3125,0.453125,0.1953125,1.027832,0.1669922,-0.4375,-0.2519531
599,21.9375,-15.5,0,0.4453125,0.1992188,1.039551,0.1669922,-0.4375,-0.2519531
600,15,-11.125,1.0625,0.4692383,0.222168,1.023926,0.1723633,-0.4375,-0.2519531
601,4.9375,-3.75,4.125,0.4174805,0.168457,1.007813,0.1723633,-0.4375,-0.2519531
602,-1.6875,2.0625,9.625,0.4052734,0.168457,1.023926,0.1723633,-0.4428711,-0.2543945
603,-2.5,6.1875,15.875,0.4291992,0.1142578,1.011719,0.1640625,-0.453125,-0.2436523
604,-0.5625,8.75,19.8125,0.4770508,0.1411133,1.011719,0.1640625,-0.453125,-0.2436523
605,0.3125,11.1875,20.125,0.4770508,0.1298828,0.9882813,0.1723633,-0.453125,-0.2436523
606,-0.625,14.1875,19.4375,0.4892578,0.1142578,0.9960938,0.1586914,-0.4609375,-0.2519531
607,-2.4375,17.1875,19.875,0.480957,0.1333008,0.972168,0.1586914,-0.4609375,-0.2519531
608,-5.625,20.3125,20.6875,0.465332,0.1333008,0.9760742,0.1723633,-0.4453125,-0.2519531
609,-10.3125,22.125,23.5625,0.3974609,0.1025391,0.9682617,0.1723633,-0.4453125,-0.2519531
610,-15.8125,23.75,26.875,0.453125,0.1064453,0.9643555,0.1694336,-0.4506836,-0.2543945
611,-21.1875,25.6875,29,0.453125,0.07177734,0.9487305,0.1723633,-0.4477539,-0.2597656
612,-24.6875,26.5625,29.4375,0.4892578,0.05615234,0.9604492,0.1723633,-0.4477539,-0.2597656
613,-25.4375,27.9375,28.75,0.5087891,-0.0009765625,0.9960938,0.1855469,-0.4428711,-0.2519531
614,-25.0625,30.1875,26.5625,0.4848633,-0.0009765625,1,0.1855469,-0.4428711,-0.2519531
615,-23.6875,33.25,23.625,0.5131836,-0.004882813,1,0.1831055,-0.4428711,-0.2543945
616,-20.8125,35.4375,20.25,0.4731445,-0.02832031,1.015625,0.1777344,-0.4326172,-0.246582
617,-16.375,37.0625,19.3125,0.4731445,-0.004882813,1.007813,0.1777344,-0.4326172,-0.246582
618,-13.375,37.0625,20,0.4492188,-0.02441406,1.015625,0.1884766,-0.4350586,-0.2358398
619,-13.3125,34.125,21.125,0.3896484,0.005859375,1.007813,0.1962891,-0.4350586,-0.2543945
620,-12.875,31.125,19.375,0.3774414,-0.02832031,1.055176,0.1962891,-0.4350586,-0.2543945
621,-11.5,26.6875,13.6875,0.3657227,0.02148438,1.027832,0.2041016,-0.4375,-0.2519531
622,-8.125,21.875,6.9375,0.3696289,-0.004882813,1.086914,0.2041016,-0.4375,-0.2519531
623,-3.875,18.3125,1.9375,0.3417969,-0.05517578,1.114746,0.2041016,-0.4326172,-0.2490234
624,-0.6875,15.5625,-0.8125,0.3579102,-0.04736328,1.122559,0.2016602,-0.4350586,-0.2568359
625,1.6875,14.375,-2.1875,0.3496094,0.001953125,1.106934,0.2016602,-0.4350586,-0.2568359
626,2.8125,15.9375,-3.375,0.3256836,-0.008789063,1.154297,0.2016602,-0.4350586,-0.2597656
627,2.375,18.6875,-3.75,0.3256836,-0.0009765625,1.055176,0.2016602,-0.4350586,-0.2597656
628,2.3125,22.875,-3.625,0.2900391,-0.0009765625,1.169922,0.2016602,-0.4301758,-0.2490234
629,3.25,27.375,-3.4375,0.2978516,0.001953125,1.134277,0.2148438,-0.4326172,-0.2519531
630,5.3125,30.5625,-3.0625,0.2939453,-0.03222656,1.185547,0.2148438,-0.4326172,-0.2519531
631,7.625,34.9375,-0.1875,0.2661133,-0.01269531,1.173828,0.2041016,-0.4223633,-0.2543945
632,6.125,36.9375,5.75,0.2583008,-0.008789063,1.150391,0.2070313,-0.4350586,-0.2387695
634,0.625,36.5625,11.6875,0.2182617,-0.02441406,1.169922,0.2070313,-0.4350586,-0.2387695
635,-4.5625,36.5625,16.3125,0.2104492,-0.01660156,1.154297,0.2148438,-0.4326172,-0.2490234
636,-10.9375,35.9375,19.4375,0.1665039,-0.0009765625,1.173828,0.2148438,-0.4326172,-0.2490234
637,-18.8125,36.5625,21.0625,0.1787109,-0.0009765625,1.189941,0.2177734,-0.4248047,-0.246582
638,-28.0625,37.3125,22.125,0.1865234,-0.04003906,1.185547,0.2202148,-0.4301758,-0.2387695
639,-36.875,38.25,22.25,0.1704102,-0.1015625,1.169922,0.2202148,-0.4301758,-0.2387695
640,-44.25,39.0625,21.75,0.1987305,-0.09765625,1.154297,0.2416992,-0.4301758,-0.2519531
641,-52.0625,40.125,21.25,0.1826172,-0.175293,1.162109,0.2416992,-0.4301758,-0.2519531
642,-60.875,43.1875,19.0625,0.2304688,-0.1479492,1.189941,0.2363281,-0.4199219,-0.2412109
643,-70.0625,47.5,14.625,0.2104492,-0.144043,1.162109,0.2338867,-0.4145508,-0.2412109
644,-76.25,52.0625,9.8125,0.2143555,-0.1904297,1.154297,0.2338867,-0.4145508,-0.2412109
645,-78.25,56.0625,6.5625,0.2143555,-0.1865234,1.169922,0.2548828,-0.409668,-0.2333984
646,-76.25,57.5,5.6875,0.206543,-0.2177734,1.173828,0.2441406,-0.3916016,-0.2436523
647,-68.3125,58.25,6.5625,0.1943359,-0.2446289,1.150391,0.2441406,-0.3916016,-0.2436523
648,-57.5,56.0625,9.4375,0.1748047,-0.2329102,1.162109,0.265625,-0.394043,-0.2543945
649,-43.625,53.5625,12.8125,0.1547852,-0.2910156,1.150391,0.265625,-0.394043,-0.2543945
650,-29.9375,50.5,17.125,0.1547852,-0.2910156,1.150391,0.2739258,-0.3837891,-0.2358398
651,-21.375,46,20.5,0.1425781,-0.2485352,1.126465,0.2763672,-0.3867188,-0.2387695
652,-17.25,41.1875,21.4375,0.1547852,-0.2753906,1.098633,0.2763672,-0.3867188,-0.2387695
653,-14.8125,36.25,19.125,0.1665039,-0.2177734,1.075195,0.2788086,-0.3686523,-0.2412109
654,-12,30.8125,15,0.1826172,-0.2099609,1.063477,0.2788086,-0.3686523,-0.2412109
655,-8.0625,26.25,10.25,0.206543,-0.2250977,1.063477,0.2871094,-0.3789063,-0.2543945
656,-4.0625,22.25,6.5,0.234375,-0.2368164,1.075195,0.2924805,-0.3867188,-0.246582
657,0.8125,19.5625,5.5,0.2382813,-0.2446289,1.106934,0.2924805,-0.3867188,-0.246582
658,6.0625,18.5,7.3125,0.222168,-0.2250977,1.138184,0.2949219,-0.3735352,-0.2333984
659,7.9375,17.25,11.0625,0.2304688,-0.2485352,1.098633,0.2924805,-0.3867188,-0.2280273
660,6.9375,17.375,14,0.2382813,-0.2177734,1.09082,0.2924805,-0.3867188,-0.2280273
661,3.5,18.125,15.375,0.2104492,-0.2177734,1.106934,0.300293,-0.3837891,-0.2333984
662,-1.375,16.75,14.0625,0.206543,-0.1787109,1.086914,0.300293,-0.3837891,-0.2333984
663,-4.8125,12.625,10.6875,0.1826172,-0.1787109,1.05127,0.2949219,-0.3764648,-0.2412109
664,-6.875,5.3125,6.625,0.1748047,-0.1943359,1.003906,0.2949219,-0.3837891,-0.2358398
665,-5.75,-3.5,3.1875,0.1508789,-0.159668,1.015625,0.2949219,-0.3837891,-0.2358398
666,-1.25,-11.4375,0.5,0.1069336,-0.1674805,1.027832,0.2895508,-0.3837891,-0.2333984
667,5.1875,-17.3125,-0.5,0.1469727,-0.2099609,1.071289,0.2895508,-0.3837891,-0.2333984
668,11.4375,-21.125,1.25,0.1469727,-0.1518555,1.039551,0.2924805,-0.3837891,-0.2333984
669,15,-23,4.625,0.1826172,-0.2021484,1.086914,0.2924805,-0.3867188,-0.2358398
670,15.25,-21.0625,8.4375,0.2182617,-0.2216797,1.075195,0.2924805,-0.3867188,-0.2358398
671,12.6875,-16.625,11.0625,0.2583008,-0.1826172,1.122559,0.2924805,-0.3837891,-0.2358398
672,6.75,-9.9375,11.5,0.2504883,-0.1787109,1.05127,0.2817383,-0.3735352,-0.2490234
673,-1.5625,-3.1875,10.9375,0.222168,-0.175293,1.079102,0.2817383,-0.3735352,-0.2490234
674,-8.6875,1.875,10.5,0.2104492,-0.1943359,1.102539,0.2763672,-0.3867188,-0.2333984
675,-12.5625,6.5,12.375,0.1665039,-0.2060547,1.114746,0.2763672,-0.3867188,-0.2333984
676,-13.75,7.875,15.25,0.1425781,-0.2177734,1.146484,0.2924805,-0.394043,-0.2387695
677,-12.875,8.9375,18.5,0.1191406,-0.2021484,1.14209,0.2871094,-0.3735352,-0.2387695
678,-13,9.6875,22.375,0.1269531,-0.2099609,1.173828,0.2871094,-0.3735352,-0.2387695
679,-16.5,11.1875,25.5,0.1230469,-0.2329102,1.185547,0.2895508,-0.3891602,-0.2412109
680,-23.6875,13.625,28.1875,0.1425781,-0.2329102,1.241211,0.2895508,-0.3891602,-0.2412109
681,-33.9375,18.125,28.75,0.1425781,-0.2563477,1.237305,0.2817383,-0.3837891,-0.230957
682,-46.875,22.375,26.125,0.1625977,-0.2563477,1.256836,0.2895508,-0.3837891,-0.2412109
683,-60.25,26.75,20.375,0.1748047,-0.2871094,1.256836,0.2895508,-0.3837891,-0.2412109
684,-71.9375,30.0625,14.3125,0.1547852,-0.3217773,1.268555,0.2978516,-0.3735352,-0.2490234
685,-80.25,30.1875,8.1875,0.1347656,-0.3256836,1.300293,0.2924805,-0.3632813,-0.2333984
686,-82.8125,28.75,4.1875,0.1030273,-0.3334961,1.304199,0.2924805,-0.3632813,-0.2333984
687,-77.9375,27,0.6875,0.09521484,-0.3681641,1.300293,0.2949219,-0.3662109,-0.2387695
688,-66.75,24.6875,-2.125,0.03515625,-0.3955078,1.375488,0.2949219,-0.3662109,-0.2387695
689,-50.0625,22.5,-4.1875,0.05908203,-0.3603516,1.383301,0.3032227,-0.3457031,-0.230957
690,-28.125,18.5625,-5.4375,0.03515625,-0.3491211,1.375488,0.3032227,-0.3432617,-0.2333984
691,-4.25,14.5625,-4.5625,-0.01171875,-0.3256836,1.462402,0.3032227,-0.3432617,-0.2333984
692,16.4375,10.0625,-1.625,-0.02783203,-0.3066406,1.39502,0.3085938,-0.3481445,-0.2333984
693,31.625,4.3125,3.25,-0.07177734,-0.2792969,1.387207,0.3085938,-0.3481445,-0.2333984
694,41.25,-1.4375,8.625,-0.05566406,-0.2216797,1.34375,0.3110352,-0.3457031,-0.2387695
695,45.3125,-6.6875,13.625,-0.05175781,-0.1943359,1.347656,0.3056641,-0.3457031,-0.2333984
696,45.3125,-12.9375,17.8125,-0.0078125,-0.125,1.300293,0.3056641,-0.3457031,-0.2333984
697,42.125,-17.8125,20.25,-0.0078125,-0.1015625,1.276855,0.3056641,-0.3457031,-0.2333984
699,35.5625,-21.8125,21,0.03125,-0.08642578,1.221191,0.2978516,-0.3530273,-0.230957
700,26.5625,-25.8125,20.1875,0.05126953,-0.07470703,1.150391,0.2978516,-0.3530273,-0.230957
701,17.3125,-28.5625,17,0.09521484,-0.04736328,1.11084,0.2978516,-0.3530273,-0.230957
702,9.75,-32,11.6875,0.1469727,-0.04736328,1.086914,0.2978516,-0.3530273,-0.230957
703,4.5,-36.375,5.875,0.1665039,-0.09375,1.043457,0.2978516,-0.3662109,-0.2333984
704,3.375,-41.0625,-0.3125,0.1508789,-0.09765625,0.9760742,0.2978516,-0.3662109,-0.2333984
705,6.6875,-46.9375,-5.1875,0.1469727,-0.07861328,0.9643555,0.2978516,-0.3662109,-0.2333984
706,14.0625,-53.6875,-8.8125,0.1469727,-0.07861328,0.972168,0.2924805,-0.3686523,-0.2387695
707,25.5625,-59.5,-12.125,0.1108398,-0.09375,0.9052734,0.2924805,-0.3686523,-0.2387695
708,39.5625,-65.6875,-14.1875,0.1108398,-0.03613281,0.9248047,0.2924805,-0.3686523,-0.2387695
709,55.5,-70.6875,-16.1875,0.1665039,-0.07080078,0.9169922,0.2763672,-0.3735352,-0.2412109
710,73.0625,-73.3125,-17.375,0.1547852,-0.02441406,0.9804688,0.2763672,-0.3735352,-0.2412109
711,89.0625,-74.25,-17.625,0.1665039,-0.004882813,0.940918,0.2763672,-0.3735352,-0.2412109
712,100.375,-74.9375,-15.8125,0.1748047,0.02148438,0.9760742,0.2685547,-0.3813477,-0.2568359
713,105.5625,-72.9375,-13.3125,0.1826172,0.02148438,0.9526367,0.2685547,-0.3813477,-0.2568359
714,106,-67.9375,-11.6875,0.1787109,0.1064453,1.007813,0.2685547,-0.3813477,-0.2568359
715,102.5,-58.875,-10.5625,0.2182617,0.1142578,1.031738,0.2685547,-0.3813477,-0.2568359
716,94.25,-49.1875,-10,0.1987305,0.1606445,1.007813,0.2387695,-0.4145508,-0.2412109
717,82.4375,-37.3125,-9.4375,0.1904297,0.1606445,1.039551,0.2338867,-0.4272461,-0.2436523
718,67.0625,-22.8125,-8.125,0.1865234,0.1796875,1.067383,0.2338867,-0.4272461,-0.2436523
719,48.25,-8.125,-5.375,0.1826172,0.1762695,1.098633,0.2285156,-0.4326172,-0.2280273
720,27.25,6.375,-1.5625,0.1347656,0.1723633,1.122559,0.230957,-0.4350586,-0.2436523
721,5.375,18.0625,3,0.07128906,0.1796875,1.122559,0.230957,-0.4350586,-0.2436523
722,-15.5625,26.3125,8,0.06298828,0.1181641,1.126465,0.2363281,-0.4326172,-0.246582
723,-33.6875,30.0625,11.6875,0.02734375,0.06396484,1.098633,0.2363281,-0.4326172,-0.246582
724,-47.125,28.625,13.4375,0.01953125,0.07177734,1.09082,0.230957,-0.4375,-0.2436523
725,-54.25,22.9375,12.625,0.0234375,0.01367188,1.055176,0.2285156,-0.4404297,-0.2543945
726,-55.375,15.6875,10.1875,0.07519531,-0.02832031,1.067383,0.2285156,-0.4404297,-0.2543945
727,-51.5,7.8125,7.8125,0.1230469,-0.09375,1.063477,0.2387695,-0.4223633,-0.2490234
728,-43.4375,0.3125,6.9375,0.1230469,-0.109375,1.09082,0.2387695,-0.4223633,-0.2490234
729,-31.0625,-5.125,7.4375,0.1665039,-0.1015625,1.05127,0.2524414,-0.4199219,-0.2387695
730,-16.5625,-10,8.875,0.1748047,-0.1401367,1.071289,0.2387695,-0.4145508,-0.2436523
731,-2.1875,-12.0625,9.625,0.2661133,-0.1518555,1.015625,0.2387695,-0.4145508,-0.2436523
732,10.375,-11.9375,9.25,0.3061523,-0.1132813,1.023926,0.2387695,-0.4199219,-0.2358398
733,19.8125,-10,8.0625,0.3217773,-0.1518555,1.05127,0.2441406,-0.4248047,-0.2387695
734,26.9375,-6.125,6.3125,0.3417969,-0.144043,1.027832,0.2441406,-0.4248047,-0.2387695
735,30.75,-3.4375,4.8125,0.3378906,-0.09375,1.023926,0.2470703,-0.4169922,-0.2490234
736,32.4375,-0.5625,2.625,0.3457031,-0.08642578,1.023926,0.2470703,-0.4169922,-0.2490234
737,33,2.5,-0.3125,0.3256836,-0.08251953,1.011719,0.2441406,-0.4301758,-0.2387695
738,31.75,4.75,-3.6875,0.2861328,-0.06298828,1.023926,0.2387695,-0.4272461,-0.2358398
739,30.5,6.6875,-6.1875,0.3217773,-0.08251953,0.9682617,0.2387695,-0.4272461,-0.2358398
740,26.25,5.125,-7.3125,0.3100586,-0.03613281,0.972168,0.2363281,-0.4301758,-0.2519531
741,22.6875,0.25,-7.125,0.2700195,-0.04394531,0.9287109,0.2363281,-0.4301758,-0.2519531
742,22.875,-5.6875,-7.9375,0.2783203,-0.02050781,0.9526367,0.2416992,-0.4326172,-0.246582
743,25.625,-14.25,-10.0625,0.2783203,-0.008789063,0.9960938,0.2387695,-0.4301758,-0.2412109
744,30.8125,-21.8125,-13.875,0.2783203,0.02539063,0.9760742,0.2387695,-0.4301758,-0.2412109
745,35.25,-26.8125,-18.5,0.3178711,0.04443359,1.055176,0.2387695,-0.4350586,-0.2333984
746,36.8125,-30,-22.0625,0.3300781,0.05615234,1.059082,0.2363281,-0.4350586,-0.2436523
747,35.3125,-27.9375,-22.8125,0.3696289,0.04833984,1.086914,0.2363281,-0.4350586,-0.2436523
748,29.75,-22.75,-21.5,0.3696289,0.09472656,1.106934,0.230957,-0.4453125,-0.2280273
749,16.75,-20.5,-19.5,0.3178711,0.08349609,1.05127,0.230957,-0.4453125,-0.2280273
750,-0.25,-20.75,-19.5,0.3017578,0.1064453,1.083008,0.2148438,-0.4477539,-0.2358398
751,-14.9375,-20.6875,-22.8125,0.2783203,0.1567383,1.14209,0.2202148,-0.4506836,-0.2358398
752,-25.6875,-22.3125,-29.1875,0.2739258,0.1606445,1.138184,0.2202148,-0.4506836,-0.2358398
753,-32.3125,-24.3125,-34.875,0.2382813,0.1489258,1.20166,0.2148438,-0.4453125,-0.2412109
754,-35.5,-26.3125,-38.1875,0.2182617,0.1220703,1.209473,0.2148438,-0.4453125,-0.2412109
755,-36.625,-28.0625,-37.9375,0.1987305,0.1142578,1.256836,0.2202148,-0.4428711,-0.2436523
756,-34.875,-28,-34.375,0.2265625,0.08349609,1.272949,0.2177734,-0.4404297,-0.2412109
757,-33.8125,-27.75,-28.9375,0.222168,0.07568359,1.221191,0.2177734,-0.4404297,-0.2412109
758,-33.8125,-26.4375,-24.5,0.2265625,0.001953125,1.237305,0.2231445,-0.4301758,-0.246582
759,-34.6875,-23.25,-21.9375,0.234375,0.02148438,1.209473,0.2124023,-0.4326172,-0.2358398
760,-34.4375,-18.6875,-22.25,0.234375,0.04443359,1.213379,0.2124023,-0.4326172,-0.2358398
761,-31.625,-12.9375,-24.6875,0.3139648,0.009765625,1.268555,0.2148438,-0.4248047,-0.2412109
762,-25.125,-4.875,-26.5,0.3139648,0.005859375,1.320313,0.2148438,-0.4248047,-0.2412109
764,-21.0625,3.6875,-23.75,0.2700195,-0.02832031,1.304199,0.2094727,-0.4223633,-0.246582
765,-23.625,10.9375,-15.125,0.2543945,-0.04394531,1.320313,0.2094727,-0.4145508,-0.2490234
766,-33.5625,18.625,-6.375,0.2265625,-0.05126953,1.316406,0.2094727,-0.4145508,-0.2490234
767,-48.375,23.1875,-3.8125,0.2304688,-0.03613281,1.324219,0.2041016,-0.4199219,-0.2568359
768,-63.5,23.8125,-8.25,0.222168,-0.04003906,1.304199,0.2041016,-0.4199219,-0.2568359
769,-76.125,20.3125,-16.8125,0.1865234,-0.01660156,1.260742,0.2124023,-0.3994141,-0.2543945
770,-85.25,15.5625,-25.5625,0.1347656,-0.109375,1.276855,0.2148438,-0.3969727,-0.2412109
771,-92.1875,10.625,-31.4375,0.1547852,-0.1479492,1.256836,0.2148438,-0.3969727,-0.2412109
772,-96.4375,5.4375,-35.3125,0.1425781,-0.1557617,1.241211,0.2148438,-0.3867188,-0.2490234
773,-97.8125,0.5,-37.125,0.1069336,-0.1713867,1.256836,0.2255859,-0.3710938,-0.2597656
774,-94.0625,-3.625,-39,0.1191406,-0.1943359,1.225098,0.2255859,-0.3710938,-0.2597656
775,-85.5,-8.25,-40.6875,0.1147461,-0.1943359,1.256836,0.230957,-0.3662109,-0.2543945
776,-72.4375,-11.5625,-42.625,0.08691406,-0.2099609,1.229492,0.230957,-0.3662109,-0.2543945
777,-56.3125,-15.0625,-43.9375,0.09082031,-0.2329102,1.249023,0.2202148,-0.3481445,-0.2543945
778,-37.6875,-17.5,-45.25,0.06738281,-0.2329102,1.276855,0.2177734,-0.3481445,-0.2568359
779,-18.625,-19.625,-47.3125,0.05517578,-0.2290039,1.249023,0.2177734,-0.3481445,-0.2568359
780,-2.375,-21.1875,-50.25,0.03515625,-0.1674805,1.20166,0.2124023,-0.3378906,-0.2412109
781,10.1875,-22.5,-52.8125,0.03125,-0.1210938,1.185547,0.2124023,-0.3378906,-0.2412109
782,19.5625,-22.6875,-54.75,0,-0.125,1.166016,0.2094727,-0.340332,-0.2519531
783,23.875,-21.6875,-55.125,0.01953125,-0.109375,1.14209,0.2124023,-0.3354492,-0.2597656
784,21.3125,-18.1875,-55.0625,0.06298828,-0.125,1.126465,0.2124023,-0.3354492,-0.2597656
785,12.6875,-11.9375,-55.5625,0.1308594,-0.1210938,1.079102,0.2124023,-0.3457031,-0.2490234
786,2.0625,-4.0625,-57.25,0.1586914,-0.1328125,1.102539,0.2148438,-0.340332,-0.2597656
787,-5.625,3.25,-58.4375,0.1748047,-0.175293,1.094727,0.2148438,-0.340332,-0.2597656
788,-5.75,8.125,-59.8125,0.2304688,-0.159668,1.083008,0.2124023,-0.3432617,-0.2519531
789,0.0625,9.9375,-60.5,0.2543945,-0.1479492,1.075195,0.2124023,-0.3432617,-0.2519531
790,10,10.9375,-60.125,0.2143555,-0.1713867,1.079102,0.2070313,-0.3505859,-0.2490234
791,17.375,11.625,-57.8125,0.2182617,-0.1210938,1.14209,0.2070313,-0.3354492,-0.246582
792,19.25,11.25,-54.4375,0.1943359,-0.1210938,1.071289,0.2070313,-0.3354492,-0.246582
793,14.25,11.4375,-51.875,0.1625977,-0.1171875,1.086914,0.2124023,-0.3378906,-0.2568359
794,3.5625,12.6875,-51.875,0.1469727,-0.09765625,1.047363,0.2124023,-0.3378906,-0.2568359
795,-6.875,14,-52.6875,0.1469727,-0.1328125,1.102539,0.2148438,-0.3432617,-0.2568359
796,-9.0625,15.4375,-54.3125,0.1308594,-0.1557617,1.146484,0.2177734,-0.3330078,-0.2597656
797,-4.5,14.8125,-57.4375,0.1665039,-0.1401367,1.189941,0.2177734,-0.3330078,-0.2597656
798,5.3125,12.25,-60.4375,0.1787109,-0.175293,1.169922,0.2148438,-0.3354492,-0.2490234
799,17.875,6.875,-63,0.1147461,-0.1401367,1.134277,0.2124023,-0.3432617,-0.262207
800,27.1875,2.375,-64.8125,0.1030273,-0.1362305,1.146484,0.2124023,-0.3432617,-0.262207
801,30.5,-0.25,-65.1875,0.07910156,-0.1171875,1.106934,0.2148438,-0.3432617,-0.2597656
802,31.375,-0.9375,-64.3125,0.1108398,-0.1054688,1.106934,0.2148438,-0.3432617,-0.2597656
803,32.625,-2.625,-63.125,0.09912109,-0.07080078,1.083008,0.2041016,-0.3457031,-0.246582
804,37.25,-7.1875,-63.375,0.1108398,-0.04394531,1.094727,0.2177734,-0.340332,-0.2519531
805,44.25,-13,-65.375,0.1469727,-0.02050781,1.047363,0.2177734,-0.340332,-0.2519531
806,49,-19.5625,-67.375,0.1347656,0.01367188,1.015625,0.2094727,-0.3432617,-0.2436523
807,48.4375,-25.375,-64.8125,0.1425781,0.009765625,1.003906,0.2094727,-0.3432617,-0.2436523
808,43.1875,-29.1875,-58.1875,0.1347656,0.009765625,1.007813,0.2148438,-0.3530273,-0.2519531
809,36.3125,-31.3125,-50.1875,0.1586914,0.02929688,0.984375,0.2202148,-0.3662109,-0.2519531
810,27.4375,-33,-44.1875,0.1787109,0.07177734,0.9921875,0.2202148,-0.3662109,-0.2519531
811,18.5,-33.25,-43,0.1943359,0.09863281,0.9682617,0.2070313,-0.355957,-0.2568359
812,10.5,-32.625,-44,0.2421875,0.1064453,0.9643555,0.1987305,-0.3632813,-0.2519531
813,5.4375,-31.25,-43.25,0.2583008,0.1181641,0.9682617,0.1987305,-0.3632813,-0.2519531
814,1.5,-30.1875,-38.8125,0.234375,0.09472656,1,0.2070313,-0.3710938,-0.2597656
815,-0.875,-27.5625,-33.125,0.2182617,0.09863281,1.007813,0.2070313,-0.3710938,-0.2597656
816,-4.75,-23.625,-28.75,0.1865234,0.09863281,1.007813,0.2041016,-0.3686523,-0.2597656
817,-12.375,-20.0625,-20.125,0.1586914,0.06787109,1.019531,0.1884766,-0.3662109,-0.262207
818,-15.375,-17.125,-12.8125,0.2783203,0.08740234,1.05127,0.1884766,-0.3662109,-0.262207
819,-12.625,-9.6875,-15,0.262207,0.07958984,1.059082,0.1855469,-0.355957,-0.2597656
820,-13.25,-4.1875,-17.125,0.2265625,0.04101563,1.098633,0.1855469,-0.355957,-0.2597656
821,-13.6875,0.5,-15.6875,0.234375,0.03710938,1.162109,0.1884766,-0.3632813,-0.262207
822,-10.25,7.4375,-12.4375,0.2182617,0.02929688,1.209473,0.1855469,-0.3583984,-0.2597656
823,-2.75,13.125,-9.125,0.1826172,0.03320313,1.260742,0.1855469,-0.3583984,-0.2597656
824,6.3125,14.5,-6.4375,0.1469727,0.06787109,1.25293,0.1933594,-0.3608398,-0.2597656
825,14,13.4375,-5.8125,0.1108398,0.09082031,1.233398,0.1962891,-0.3632813,-0.246582
826,19.125,8.1875,-7.8125,0.1469727,0.1181641,1.189941,0.1962891,-0.3632813,-0.246582
827,21.0625,2.6875,-8.5,0.1347656,-0.109375,1.40332,0.1962891,-0.3662109,-0.262207
829,23.5,2.8125,23.125,0.1308594,-0.04003906,1.102539,0.1962891,-0.3662109,-0.262207
830,25.75,-16,33,0.1547852,0.203125,1.086914,0.1987305,-0.3583984,-0.262207
831,33.5,-29.0625,20,0.1787109,0.2573242,1.173828,0.1987305,-0.3583984,-0.262207
832,25.5,-34.3125,8.4375,0.2822266,0.3422852,1.063477,0.1987305,-0.3583984,-0.262207
833,4,-27.9375,-0.6875,0.3417969,0.2919922,1.166016,0.1987305,-0.3710938,-0.262207
834,-16.5,-9.375,-8.375,0.4213867,0.3188477,1.114746,0.1987305,-0.3710938,-0.262207
835,-42.8125,0.625,-4.5625,0.425293,0.1992188,1.122559,0.1987305,-0.3710938,-0.262207
836,-53.125,15.375,2.375,0.3696289,0.137207,1.162109,0.1962891,-0.3583984,-0.2568359
837,-58.0625,21.6875,2.5,0.2822266,0.2338867,1.173828,0.1962891,-0.3583984,-0.2568359
838,-65.0625,24.125,-2.25,0.1943359,0.2070313,1.039551,0.1962891,-0.3583984,-0.2568359
839,-96,20.75,30.5625,0.003417969,-0.1826172,0.9248047,0.1855469,-0.3432617,-0.2490234
840,-107.875,24,45.75,0.2182617,0.02929688,1.296387,0.1855469,-0.3432617,-0.2490234
841,-88.375,29.125,34.125,0.262207,0.06396484,1.059082,0.1855469,-0.3432617,-0.2490234
842,-75.3125,20.3125,19.4375,0.2460938,0.06005859,1.209473,0.1855469,-0.3432617,-0.2490234
843,-55.375,18.5,4.0625,0.2421875,-0.008789063,1.154297,0.190918,-0.3227539,-0.246582
844,-46.5,18.3125,-2.375,0.2661133,-0.004882813,1.154297,0.190918,-0.3227539,-0.246582
845,-22.3125,22.75,-32.0625,0.3100586,0.005859375,1.185547,0.190918,-0.3227539,-0.246582
846,-28.0625,7.625,-50.1875,0.425293,0.09472656,0.9526367,0.2041016,-0.3095703,-0.2597656
847,-32.75,7.75,-58,0.3857422,-0.1328125,1.241211,0.2041016,-0.3095703,-0.2597656
848,-40.375,24.5625,-40.0625,0.2504883,-0.1518555,1.043457,0.2041016,-0.3095703,-0.2597656
849,-55.0625,23.5625,-21.3125,0.2460938,-0.1171875,1.166016,0.2070313,-0.3095703,-0.2543945
850,-43.875,33.6875,-18.875,0.1943359,0.01367188,1.067383,0.2070313,-0.3095703,-0.2543945
851,-35.0625,24.6875,-25.1875,0.1943359,0.09863281,1.067383,0.2041016,-0.3022461,-0.2543945
852,-17.75,12.875,-33.375,0.222168,0.02929688,1.043457,0.2148438,-0.2919922,-0.2519531
853,-7.9375,2.0625,-32.4375,0.262207,0.01757813,1.083008,0.2148438,-0.2919922,-0.2519531
854,-0.5,4.8125,-28.375,0.2583008,0.06787109,1.075195,0.2148438,-0.2919922,-0.2519531
855,-6.5625,1.125,-24.9375,0.2460938,0.07177734,1.027832,0.2148438,-0.2919922,-0.2519531
856,-13.375,5.5,-17.75,0.2504883,0.04101563,1.14209,0.2094727,-0.2993164,-0.2519531
857,-15.5,15.6875,-12.75,0.2460938,0.1103516,1.181641,0.2148438,-0.2919922,-0.2519531
858,-15.375,21.3125,-13.5,0.206543,0.1142578,1.098633,0.2148438,-0.2919922,-0.2519531
859,-16.1875,22.5,-17.8125,0.234375,0.137207,1.079102,0.2124023,-0.2866211,-0.2436523
860,-20.375,23.6875,-16.5625,0.262207,0.02539063,1.102539,0.2285156,-0.2866211,-0.2519531
861,-25.5625,28.9375,-10.4375,0.2382813,-0.02441406,1.181641,0.2285156,-0.2866211,-0.2519531
862,-33.125,33.6875,-5.6875,0.2304688,-0.02832031,1.122559,0.2202148,-0.2739258,-0.2543945
863,-39.625,34.375,-5.25,0.222168,-0.05517578,1.138184,0.2202148,-0.2739258,-0.2543945
864,-39.9375,30.375,-6.125,0.222168,-0.01269531,1.122559,0.230957,-0.2792969,-0.2412109
865,-32.8125,25.5625,-5.4375,0.1987305,-0.05517578,1.102539,0.2255859,-0.2714844,-0.2543945
866,-25.3125,17,-5.375,0.222168,-0.04394531,1.102539,0.2255859,-0.2714844,-0.2543945
867,-18,11.625,-8.1875,0.222168,-0.01269531,1.09082,0.2363281,-0.2714844,-0.2436523
868,-11.4375,6.3125,-12.3125,0.2543945,-0.0009765625,1.126465,0.2363281,-0.2714844,-0.2436523
869,-6.5,1.3125,-14.875,0.3178711,-0.02050781,1.158203,0.2441406,-0.2636719,-0.246582
870,-1.3125,3.125,-16.8125,0.2822266,-0.004882813,1.150391,0.2285156,-0.2739258,-0.246582
871,-2.75,3.6875,-16.75,0.2543945,-0.03222656,1.102539,0.2285156,-0.2739258,-0.246582
872,-11.875,5.375,-15.0625,0.3017578,-0.04736328,1.126465,0.2338867,-0.2661133,-0.2387695
873,-20,11.1875,-14.4375,0.2783203,-0.04736328,1.138184,0.2338867,-0.2636719,-0.2412109
874,-27.25,12.75,-14.9375,0.3256836,-0.04003906,1.083008,0.2338867,-0.2636719,-0.2412109
875,-28.5,14.25,-16.875,0.3100586,-0.05517578,1.11084,0.230957,-0.2636719,-0.2387695
876,-23.9375,16.5625,-19,0.2861328,-0.04736328,1.138184,0.230957,-0.2636719,-0.2387695
877,-17.0625,17.5,-20,0.2026367,-0.04003906,1.138184,0.2416992,-0.2661133,-0.2387695
878,-8.6875,15.25,-19.375,0.1665039,-0.05908203,1.126465,0.2416992,-0.2558594,-0.246582
879,0.625,11.125,-18.3125,0.1826172,-0.02050781,1.14209,0.2416992,-0.2558594,-0.246582
880,9.5,7,-15.9375,0.2143555,-0.01269531,1.134277,0.2363281,-0.2558594,-0.2412109
881,12.3125,1.875,-14.125,0.1943359,-0.004882813,1.122559,0.2363281,-0.2558594,-0.2412109
882,13.3125,1.1875,-15.9375,0.2182617,0.01367188,1.11084,0.230957,-0.2612305,-0.2490234
883,12.625,-1,-18.5625,0.2382813,0.03710938,1.079102,0.2363281,-0.2485352,-0.246582
884,10.1875,-4.1875,-17.875,0.2382813,0.001953125,1.114746,0.2363281,-0.2485352,-0.246582
885,3.25,-4.25,-16.625,0.2739258,0.02148438,1.094727,0.2363281,-0.2485352,-0.2387695
886,-8.625,-1.25,-17.8125,0.2900391,-0.0009765625,1.126465,0.2338867,-0.253418,-0.2519531
887,-21.5,2.875,-20.1875,0.2739258,-0.01660156,1.071289,0.2338867,-0.253418,-0.2519531
888,-31.5,5.75,-23.125,0.2900391,-0.01269531,1.126465,0.2441406,-0.2558594,-0.2387695
889,-32.375,10.125,-25.5,0.2543945,-0.04003906,1.166016,0.2441406,-0.2558594,-0.2387695
890,-26.6875,11.625,-27.1875,0.2661133,-0.01660156,1.20166,0.2416992,-0.2558594,-0.2358398
891,-15.4375,12,-28.4375,0.2026367,-0.004882813,1.233398,0.2441406,-0.2485352,-0.2387695
892,-2.625,11.25,-27.8125,0.1665039,0.005859375,1.189941,0.2441406,-0.2485352,-0.2387695
894,6.4375,9.5625,-26.125,0.1625977,0.01757813,1.197754,0.2363281,-0.2558594,-0.246582
895,7.3125,7.5625,-22.8125,0.1191406,0.02929688,1.126465,0.2363281,-0.2558594,-0.246582
896,-0.8125,2.5,-18.8125,0.1230469,0.02148438,1.067383,0.2470703,-0.2382813,-0.2358398
897,-15.25,-2.25,-15.75,0.09912109,0.02929688,0.9960938,0.2441406,-0.2329102,-0.2387695
898,-29.875,-4.4375,-15.9375,0.1308594,0.001953125,1.039551,0.2441406,-0.2329102,-0.2387695
899,-38.6875,-3.4375,-18.875,0.1748047,-0.02050781,1.071289,0.2470703,-0.2456055,-0.2519531
900,-41.3125,-3.3125,-22,0.206543,-0.03222656,1.027832,0.2363281,-0.2304688,-0.2436523
901,-38.125,1.3125,-23.6875,0.2382813,-0.1401367,1.225098,0.2363281,-0.2304688,-0.2436523
902,-28.1875,13,-25.5,0.2304688,-0.1015625,1.181641,0.2338867,-0.2280273,-0.2333984
903,-24.1875,20.5,-27.125,0.222168,-0.1210938,1.158203,0.2338867,-0.2280273,-0.2333984
904,-18.5625,27.1875,-27.0625,0.1987305,-0.1289063,1.166016,0.2338867,-0.2280273,-0.2412109
905,-10.125,29.75,-24.625,0.1508789,-0.09765625,1.14209,0.2387695,-0.2304688,-0.2358398
906,-0.9375,27.9375,-21.875,0.1108398,-0.07080078,1.086914,0.2387695,-0.2304688,-0.2358398
907,7,23,-22,0.08300781,-0.04394531,1.094727,0.2495117,-0.2250977,-0.230957
908,11.0625,18.1875,-26.625,0.03955078,-0.01269531,1.086914,0.2495117,-0.2250977,-0.230957
909,12.125,11.375,-32.75,0.03955078,0.009765625,1.05127,0.2441406,-0.2250977,-0.2387695
910,11.75,0.6875,-39.1875,0.09082031,0.01367188,1.023926,0.2548828,-0.2280273,-0.2333984
911,12.125,-5.25,-42.9375,0.2143555,-0.04003906,1.086914,0.2548828,-0.2280273,-0.2333984
912,9.625,-5.75,-46.375,0.2939453,-0.02050781,1.150391,0.2470703,-0.2280273,-0.2333984
913,3,0.3125,-50.6875,0.2861328,-0.04736328,1.173828,0.2470703,-0.2250977,-0.2358398
914,-12.3125,7.625,-52.0625,0.3339844,-0.05908203,1.023926,0.2470703,-0.2250977,-0.2358398
915,-35.25,14.5,-52.875,0.3657227,-0.09765625,1.205566,0.2387695,-0.2226563,-0.230957
916,-54.125,28.8125,-51.125,0.4291992,-0.159668,1.221191,0.2387695,-0.2226563,-0.230957
917,-71.25,42.0625,-47.375,0.3657227,-0.1557617,1.197754,0.2524414,-0.2226563,-0.2387695
918,-82.125,52.8125,-46.25,0.2900391,-0.1904297,1.260742,0.2495117,-0.2075195,-0.2255859
919,-80.0625,59.125,-45.4375,0.1943359,-0.2138672,1.241211,0.2495117,-0.2075195,-0.2255859
920,-71.875,56.5625,-41.375,0.07128906,-0.2485352,1.185547,0.2578125,-0.1918945,-0.2333984
921,-60.25,46,-33,-0.02783203,-0.2792969,1.138184,0.2578125,-0.1918945,-0.2333984
922,-44.5625,28.5625,-24.375,-0.05175781,-0.2910156,1.14209,0.265625,-0.1918945,-0.230957
923,-23.625,12.5,-18.5,-0.01171875,-0.3027344,1.134277,0.2685547,-0.1894531,-0.2280273
924,1.1875,-3.375,-19.625,0.007324219,-0.2524414,1.197754,0.2685547,-0.1894531,-0.2280273
925,25.5625,-15.0625,-26.375,0.05126953,-0.2832031,1.221191,0.2685547,-0.1845703,-0.2280273
926,50,-23.75,-33.75,0.09521484,-0.2949219,1.260742,0.265625,-0.1870117,-0.2226563
927,76.25,-31.625,-36.25,0.09912109,-0.2485352,1.256836,0.265625,-0.1870117,-0.2226563
928,100,-38.75,-33.5625,0.1386719,-0.2407227,1.245117,0.2495117,-0.1972656,-0.2226563
929,118.75,-43.5,-27.9375,0.1625977,-0.2021484,1.221191,0.2495117,-0.1972656,-0.2226563
930,128.25,-43.8125,-21.625,0.206543,-0.1479492,1.249023,0.2524414,-0.199707,-0.2358398
931,127.6875,-40.625,-17.0625,0.2143555,-0.144043,1.197754,0.2470703,-0.2202148,-0.2358398
932,119.625,-35.625,-14.3125,0.234375,-0.1210938,1.193848,0.2470703,-0.2202148,-0.2358398
933,108.6875,-30.375,-12.125,0.2421875,-0.07470703,1.177734,0.2387695,-0.2250977,-0.2412109
934,95.6875,-28,-8.8125,0.222168,-0.01269531,1.154297,0.2387695,-0.2250977,-0.2412109
935,80.1875,-24.75,-6.1875,0.1987305,-0.02441406,1.11084,0.2363281,-0.2353516,-0.2436523
936,59.5,-19.8125,-4.0625,0.2304688,0.005859375,1.122559,0.2363281,-0.2485352,-0.2412109
937,32.5,-11.625,-2.8125,0.2182617,-0.03222656,1.11084,0.2363281,-0.2485352,-0.2412109
938,3.4375,-2.0625,-3.25,0.2783203,-0.05126953,1.138184,0.2338867,-0.2661133,-0.2436523
939,-22.5,4.875,-5.3125,0.3300781,-0.05517578,1.106934,0.2285156,-0.2587891,-0.246582
940,-41.375,8.3125,-7.9375,0.3300781,-0.08251953,1.126465,0.2285156,-0.2587891,-0.246582
941,-52.4375,8.5625,-9.375,0.3139648,-0.1015625,1.138184,0.2231445,-0.253418,-0.246582
942,-57,9.25,-10.5625,0.3339844,-0.144043,1.138184,0.2231445,-0.253418,-0.246582
943,-60.25,7.4375,-11.625,0.2939453,-0.09765625,1.106934,0.2177734,-0.2456055,-0.2436523
944,-60.375,6.6875,-13.5,0.2900391,-0.1132813,1.102539,0.2338867,-0.2382813,-0.2387695
945,-58.8125,5.9375,-15.125,0.2861328,-0.109375,1.106934,0.2338867,-0.2382813,-0.2387695
946,-54.5,2.8125,-15.4375,0.2504883,-0.144043,1.059082,0.2285156,-0.2353516,-0.2436523
947,-44.75,-0.5625,-13.1875,0.2504883,-0.1518555,1.086914,0.2285156,-0.2353516,-0.2436523
948,-31.25,-1.8125,-7.375,0.2861328,-0.2407227,1.071289,0.2338867,-0.2250977,-0.2490234
949,-16.875,-1.0625,1.5625,0.2504883,-0.2524414,1.118652,0.2338867,-0.2202148,-0.2412109
950,-6.9375,3.5,11.25,0.2421875,-0.2250977,1.118652,0.2338867,-0.2202148,-0.2412109
951,-2.8125,5.4375,18.375,0.2504883,-0.2177734,1.031738,0.2338867,-0.2177734,-0.2280273
952,-4.75,9.625,19.75,0.2460938,-0.1982422,1.083008,0.230957,-0.2177734,-0.2333984
953,-10.1875,12.1875,16.875,0.2143555,-0.1826172,1.043457,0.230957,-0.2177734,-0.2333984
954,-14.1875,14.5625,13.625,0.222168,-0.1943359,1.075195,0.230957,-0.2280273,-0.2490234
955,-17.25,18.875,10.625,0.2026367,-0.1713867,1.083008,0.230957,-0.2280273,-0.2490234
956,-23.5,25.4375,4.625,0.1904297,-0.1674805,1.094727,0.230957,-0.2250977,-0.2333984
957,-32.3125,26.875,-7.1875,0.2026367,-0.1328125,1.067383,0.2441406,-0.2250977,-0.2358398
959,-37.375,24.6875,-27.375,0.2182617,-0.07861328,1.075195,0.2441406,-0.2250977,-0.2358398
960,-36.6875,21.8125,-54.4375,0.2104492,-0.08642578,1.098633,0.2441406,-0.2099609,-0.2358398
961,-36.6875,19.625,-82.875,0.1904297,-0.1289063,1.122559,0.2441406,-0.2099609,-0.2358398
962,-46.5,20.9375,-99.625,0.2104492,-0.2368164,1.130371,0.2441406,-0.2099609,-0.2358398
963,-74.1875,23.8125,-108.625,0.1826172,-0.3334961,1.079102,0.2441406,-0.2021484,-0.2333984
964,-113.9375,27,-111.25,0.1147461,-0.4570313,1.102539,0.2441406,-0.2021484,-0.2333984
965,-144.1875,25.1875,-106.5625,0.1108398,-0.6079102,1.150391,0.2441406,-0.2021484,-0.2333984
966,-145.625,12.625,-89.5,0.1469727,-0.7197266,1.122559,0.2338867,-0.1665039,-0.2255859
967,-122.8125,-1.1875,-70.25,0.1943359,-0.6928711,1.138184,0.2338867,-0.1665039,-0.2255859
968,-80.25,-14.75,-56.75,0.2543945,-0.6503906,1.166016,0.2338867,-0.1665039,-0.2255859
969,-28.1875,-24.875,-51.375,0.3100586,-0.5498047,1.14209,0.2338867,-0.1665039,-0.2255859
970,22.75,-30.1875,-52.125,0.2822266,-0.4956055,1.166016,0.2387695,-0.1411133,-0.2124023
971,66,-35.5625,-55.4375,0.3061523,-0.3994141,1.067383,0.2387695,-0.1411133,-0.2124023
972,111.75,-63.4375,-63.1875,0.5170898,-0.2290039,0.7709961,0.2387695,-0.1411133,-0.2124023
973,170.5625,-98.8125,-102.6875,0.6762695,-0.0009765625,1.268555,0.2148438,-0.1640625,-0.2280273
974,173,-89.75,-146.25,0.4013672,-0.06689453,1.019531,0.2148438,-0.1640625,-0.2280273
975,109.9375,-115.3125,-168.5625,0.2822266,-0.1982422,0.8696289,0.2148438,-0.1640625,-0.2280273
976,68.375,-159.6875,-146.875,0.01953125,-0.2988281,0.8100586,0.1723633,-0.1870117,-0.2412109
977,58.625,-169.0625,-119.125,-0.03564453,-0.3334961,1.209473,0.1723633,-0.1870117,-0.2412109
978,73.8125,-120.125,-93.75,-0.09130859,-0.1557617,1.150391,0.1723633,-0.1870117,-0.2412109
979,71.6875,-54.625,-87.1875,0.06738281,-0.125,1.185547,0.1430664,-0.1894531,-0.246582
980,78.4375,28.3125,-68.5,0.2739258,-0.08984375,1.154297,0.1430664,-0.1894531,-0.246582
981,68.3125,86.4375,-63.75,0.4174805,-0.02050781,1.14209,0.1455078,-0.2075195,-0.2387695
982,69.8125,75.25,-59.3125,0.409668,0.005859375,1.126465,0.1455078,-0.2075195,-0.2387695
983,60.8125,5.9375,-51.8125,0.3657227,-0.07080078,1.055176,0.1376953,-0.215332,-0.2490234
984,55.0625,-47.5625,-32.1875,0.1826172,-0.1328125,1.150391,0.1430664,-0.2226563,-0.246582
985,65.125,-57.1875,-12.3125,0.1230469,-0.1289063,1.169922,0.1430664,-0.2226563,-0.246582
986,76.0625,-40.9375,4.0625,0.1230469,-0.1557617,1.130371,0.1401367,-0.2353516,-0.2543945
987,19.4375,62.625,-13.5625,0.3378906,-0.1557617,0.9882813,0.1347656,-0.2280273,-0.2490234
988,40.5,142.125,-28.125,0.03955078,-0.1132813,1.229492,0.1347656,-0.2280273,-0.2490234
989,41.375,96.875,-16,0.2304688,-0.06298828,1.011719,0.1484375,-0.2329102,-0.2412109
990,41.625,41,-19.9375,0.3017578,-0.08251953,0.9960938,0.1484375,-0.2329102,-0.2412109
991,55.75,32.4375,-45.125,0.01953125,-0.09375,1.316406,0.1586914,-0.2329102,-0.2490234
992,58,22.5625,-66.625,0.03515625,0.001953125,0.8535156,0.1640625,-0.2558594,-0.246582
993,59.875,8.8125,-63.9375,0.06738281,-0.04736328,0.9760742,0.1640625,-0.2558594,-0.246582
994,42.1875,-13.125,-48.375,0,-0.1289063,1.063477,0.1616211,-0.2612305,-0.2597656
995,27.5625,-18.5,-32.5,0.3300781,0.02929688,1.023926,0.1616211,-0.2612305,-0.2597656
996,-0.25,-19.625,-21.25,0.4331055,0.07177734,1.05127,0.1508789,-0.2661133,-0.2436523
997,-11.125,-13.625,-3.1875,0.2783203,0.09472656,1.14209,0.1616211,-0.2612305,-0.2519531
998,-6.375,-5.125,9.5625,0.2661133,0.06787109,1.268555,0.1616211,-0.2612305,-0.2519531
999,3.6875,0.5,9.5,0.1547852,0.02148438,1.264648,0.1616211,-0.2558594,-0.2519531
1000,0.375,11.5,7.9375,0.262207,0.07958984,1.075195,0.1694336,-0.2636719,-0.2490234
1001,3.1875,24.5,4,0.3417969,0.1450195,1.166016,0.1694336,-0.2636719,-0.2490234
1002,5.375,43.5625,4.875,0.3256836,0.06396484,1.067383,0.15625,-0.2636719,-0.2568359
1003,-14.3125,60.375,11.6875,0.2661133,0.03710938,1.169922,0.15625,-0.2636719,-0.2568359
1004,-7.625,68.5625,4.375,0.3535156,0.1181641,1.086914,0.1640625,-0.2612305,-0.2436523
1005,0.6875,68.0625,9.3125,0.1943359,0.02929688,1.166016,0.1694336,-0.2661133,-0.2490234
1006,15.9375,67.3125,18.5625,0.206543,-0.004882813,1.177734,0.1694336,-0.2661133,-0.2490234
1007,39.5,56.5,27,0.2382813,0.06005859,1.158203,0.1723633,-0.2636719,-0.2490234
1008,47.4375,40,29.8125,0.3417969,0.03710938,1.043457,0.1723633,-0.2636719,-0.2490234
1009,34.5,25.5,28.1875,0.2265625,-0.07080078,0.972168,0.1987305,-0.2739258,-0.2543945
1010,25.0625,6.9375,19.9375,0.1904297,-0.06298828,1.079102,0.1933594,-0.269043,-0.2490234
1011,31.5625,-7.5,16.625,0.07128906,-0.03613281,1.122559,0.1933594,-0.269043,-0.2490234
1012,35,-3.625,24.9375,0.3300781,0.06005859,1.122559,0.2070313,-0.269043,-0.2519531
1013,27.875,4.1875,31.75,0.3100586,0.02929688,1.098633,0.1884766,-0.2841797,-0.246582
1014,14.375,0,28.0625,0.2104492,-0.008789063,1.11084,0.1884766,-0.2841797,-0.246582
1015,12.9375,1.75,27.625,0.07910156,-0.04736328,1.205566,0.1884766,-0.2890625,-0.2568359
1016,7.9375,13.0625,24.1875,0.1469727,-0.01269531,1.094727,0.1884766,-0.2890625,-0.2568359
1017,6.1875,15.625,16.8125,0.3017578,0.1025391,1.162109,0.2041016,-0.2890625,-0.2490234
1018,1.1875,14,9.375,0.1347656,0.04833984,1.134277,0.1831055,-0.2792969,-0.2568359
1019,0.375,7.5,10.3125,0.08691406,0.05615234,1.122559,0.1831055,-0.2792969,-0.2568359
1020,0.5625,0,9.0625,0.2783203,0.137207,1.055176,0.1962891,-0.2944336,-0.2543945
1021,-2.5625,12.9375,19.125,0.222168,0.02929688,1.055176,0.1962891,-0.2944336,-0.2543945
1022,2.3125,23.6875,31,0.1308594,0.02539063,1.047363,0.2016602,-0.2841797,-0.2490234
1024,0.1875,21.9375,36.3125,0.234375,-0.008789063,1.079102,0.2070313,-0.2944336,-0.2519531
1025,-6.6875,17,29.9375,0.1191406,-0.05517578,1.083008,0.2070313,-0.2944336,-0.2519531
1026,-7.0625,12.1875,33.8125,0.03955078,-0.01660156,1.185547,0.2094727,-0.2739258,-0.2490234
1027,-0.75,3.1875,43.25,0.09912109,0.02539063,1.209473,0.2094727,-0.2817383,-0.2519531
1028,6.625,-10,52.0625,0.01953125,-0.04003906,1.213379,0.2094727,-0.2817383,-0.2519531
1029,17.6875,-21.75,57.1875,0.09082031,0.04833984,1.177734,0.2041016,-0.2890625,-0.2490234
1030,18.5625,-23.75,60.5,0.2543945,0.1333008,1.158203,0.2041016,-0.2890625,-0.2490234
1031,18.5,-20.9375,55.8125,0.3417969,0.1142578,1.217285,0.2094727,-0.2890625,-0.2568359
1032,14.9375,0.3125,45.75,0.4052734,0.1762695,1.177734,0.2070313,-0.2841797,-0.2543945
1033,14.5625,34.8125,31.4375,0.3735352,0.1333008,1.177734,0.2070313,-0.2841797,-0.2543945
1034,10.4375,61.5625,15.8125,0.3818359,0.152832,1.154297,0.2041016,-0.3022461,-0.2519531
1035,5.8125,85.875,-3.5625,0.3735352,0.1181641,1.134277,0.2041016,-0.3022461,-0.2519531
1036,5.75,101.5625,-14.9375,0.2265625,0.06396484,1.079102,0.2124023,-0.2993164,-0.262207
1037,5.125,103.4375,-23.625,0.1943359,0.1259766,1.067383,0.2255859,-0.3022461,-0.2519531
1038,5.75,102.875,-37.625,0.1625977,0.07177734,1.059082,0.2255859,-0.3022461,-0.2519531
1039,-1.375,98.8125,-49,0.01123047,0.03320313,1.011719,0.2495117,-0.2993164,-0.262207
1040,-5.9375,89.875,-55.625,0,0.1298828,1.059082,0.2495117,-0.3022461,-0.2490234
1041,-9.4375,78.1875,-60.3125,0.03955078,0.1103516,1.083008,0.2495117,-0.3022461,-0.2490234
1042,-8.3125,69.5,-61.125,0.01953125,0.1450195,1.189941,0.2739258,-0.2993164,-0.2412109
1043,4.375,78.375,-47.0625,0.06298828,0.2802734,1.256836,0.2739258,-0.2993164,-0.2412109
1044,18.875,93.9375,-40.3125,0.1625977,0.2109375,1.185547,0.265625,-0.2919922,-0.2490234
1045,18.75,89.625,-41.25,-0.06347656,0.2880859,1.205566,0.2924805,-0.296875,-0.2358398
1046,9.0625,67.875,-24.5,-0.1474609,0.2919922,1.276855,0.2924805,-0.296875,-0.2358398
1047,13,46.875,-15.125,-0.01611328,0.2998047,1.260742,0.2924805,-0.3022461,-0.2387695
1048,21.1875,37.625,-7.4375,0.03125,0.2148438,1.264648,0.2924805,-0.3022461,-0.2387695
1049,25.25,35.3125,-4.5,0.08300781,0.1914063,1.264648,0.2924805,-0.3022461,-0.2387695
1050,25.875,35.5,-8,0.09521484,0.2573242,1.237305,0.2978516,-0.2993164,-0.2412109
1051,20.25,34.9375,-10.625,0.06298828,0.2109375,1.181641,0.2978516,-0.2993164,-0.2412109
1052,16.3125,28.0625,-15.125,0.06738281,0.3422852,1.079102,0.3032227,-0.2919922,-0.2387695
1053,6.8125,22.75,-28.875,0.2421875,0.2612305,1.059082,0.3032227,-0.3022461,-0.2412109
1054,-3.875,17.5625,-37.125,0.04736328,0.2299805,1.011719,0.3032227,-0.3022461,-0.2412109
1055,-3.6875,3.0625,-34.6875,-0.00390625,0.1914063,1.055176,0.3032227,-0.3022461,-0.230957
1056,0,-7.5625,-29.25,0.0234375,0.1953125,1.047363,0.3032227,-0.3022461,-0.230957
1057,0.75,-15.125,-19.5,0.03955078,0.2260742,1.134277,0.3056641,-0.3022461,-0.2358398
1058,6.25,-29.8125,-13.9375,0.015625,0.1835938,1.193848,0.2949219,-0.2993164,-0.246582
1059,8.75,-37.75,-9.5,-0.06347656,0.1914063,1.209473,0.2949219,-0.2993164,-0.246582
1060,13.8125,-43.25,-5.1875,0.007324219,0.2109375,1.237305,0.2924805,-0.2993164,-0.2412109
1061,13.8125,-39.8125,-2.75,0.1865234,0.203125,1.29248,0.2924805,-0.2993164,-0.2412109
1062,10.5625,-26.25,-1.4375,0.5366211,0.253418,1.126465,0.2924805,-0.3022461,-0.2333984
1063,5.5625,-14.75,-3.75,0.4213867,0.1450195,1.193848,0.2949219,-0.2993164,-0.2387695
1064,3.9375,-12.875,-1.625,0.3300781,0.1835938,1.193848,0.2949219,-0.2993164,-0.2387695
1065,5.3125,-10.6875,-4.1875,0.3857422,0.2338867,1.14209,0.2949219,-0.3022461,-0.2333984
1066,3.8125,-7.8125,-8.9375,0.262207,0.2109375,1.11084,0.2871094,-0.2944336,-0.2387695
1067,7.0625,-14.1875,-6.8125,0.1665039,0.2109375,1.102539,0.2871094,-0.2944336,-0.2387695
1068,14.9375,-10.625,-3.1875,0.2143555,0.1762695,1.09082,0.2924805,-0.3046875,-0.2358398
1069,17.5,-16.1875,-0.1875,0.1625977,0.21875,1.169922,0.2924805,-0.3046875,-0.2358398
1070,19.75,-40.5,1.5625,0.1865234,0.2070313,1.3125,0.2841797,-0.3071289,-0.2387695
1071,22.3125,-32.3125,2.3125,0.2661133,0.2338867,1.11084,0.2739258,-0.3095703,-0.2358398
1072,23,-13.5,7.3125,0.2739258,0.237793,1.173828,0.2739258,-0.3095703,-0.2358398
1073,21.1875,-9.375,13.875,0.2265625,0.2260742,1.162109,0.2685547,-0.3022461,-0.2490234
1074,19.625,-1.0625,19.1875,0.4213867,0.2456055,1.249023,0.2685547,-0.3022461,-0.2490234
1075,16,15,17.6875,0.3417969,0.2651367,1.11084,0.2763672,-0.3095703,-0.2387695
1076,12.25,25.375,21,0.4013672,0.3266602,1.114746,0.2763672,-0.3149414,-0.246582
1077,7.8125,32.25,19.5625,0.3061523,0.3422852,1.166016,0.2763672,-0.3149414,-0.246582
1078,5.6875,36,14.8125,0.2182617,0.3188477,1.11084,0.2817383,-0.3095703,-0.2412109
1079,1.9375,35.4375,10.75,0.1665039,0.2841797,1.233398,0.2763672,-0.3276367,-0.2412109
1080,0.1875,26.1875,5.5,0.0234375,0.2958984,1.158203,0.2763672,-0.3276367,-0.2412109
1081,-2.4375,27.375,2,0.1030273,0.2998047,1.14209,0.2949219,-0.3125,-0.2436523
1082,-4,32.5625,-7.25,0.1704102,0.253418,1.197754,0.2949219,-0.3125,-0.2436523
1083,-3.3125,43.375,-10.0625,-0.1948242,0.2299805,1.197754,0.2924805,-0.3149414,-0.2490234
1084,-2.8125,56.0625,-9.75,-0.3779297,0.2495117,1.268555,0.2924805,-0.3149414,-0.2387695
1085,-5.8125,81.875,-15.5,-1.174316,0.5004883,1.407227,0.2924805,-0.3149414,-0.2387695
1086,-12.125,27.3125,-14.5,-0.5136719,-0.175293,0.7788086,0.3056641,-0.3198242,-0.2436523
1087,-1.4375,14.9375,-49.3125,0.3017578,0.3037109,1.39502,0.3056641,-0.3198242,-0.2436523
1089,30.6875,73.6875,-31.5,0.7915039,0.1450195,0.9960938,0.3085938,-0.3095703,-0.2358398
1090,22.1875,39.0625,2.0625,0.3100586,0.08740234,0.8535156,0.3139648,-0.3125,-0.2387695
1091,18.4375,7.3125,16,0.2026367,0.2456055,1.118652,0.3139648,-0.3125,-0.2387695
1092,17.3125,18.625,-4.0625,0.04345703,0.3037109,1.019531,0.3139648,-0.3125,-0.2387695
1093,7.6875,8.875,-4.75,0.3535156,0.2612305,0.9526367,0.3085938,-0.3251953,-0.2255859
1094,-4.625,0.125,8.4375,0.6918945,0.2612305,0.940918,0.3085938,-0.3251953,-0.2255859
1095,-4.75,-9.1875,27.625,0.6044922,0.2919922,0.984375,0.3085938,-0.3251953,-0.2255859
1096,-1,-11.6875,36.375,0.3100586,0.3422852,0.9960938,0.3085938,-0.3251953,-0.2255859
1097,-5.8125,-15,34.3125,0.07128906,0.3188477,0.984375,0.3139648,-0.3227539,-0.2333984
1098,-5.875,-10.625,35.6875,0.1147461,0.3188477,1.011719,0.3139648,-0.3227539,-0.2333984
1099,-12.3125,-3.1875,35.8125,0.08300781,0.3188477,0.9760742,0.3139648,-0.3227539,-0.2333984
1100,-17.375,1.5625,36.75,0.02734375,0.3188477,0.9326172,0.3110352,-0.3198242,-0.2358398
1101,-28.75,3.6875,37.4375,-0.01611328,0.3188477,0.8696289,0.3110352,-0.3198242,-0.2358398
1102,-37.5625,6.125,43.5625,-0.1391602,0.222168,1.007813,0.3110352,-0.3198242,-0.2358398
1103,-30.125,5.0625,40.375,-0.1274414,0.1606445,1.09082,0.3188477,-0.3227539,-0.2358398
1104,-5.8125,-5.1875,36.875,0.007324219,0.02929688,1.098633,0.3188477,-0.3227539,-0.2358398
1105,8.4375,-17,37.8125,0.015625,0.1025391,1.122559,0.3188477,-0.3227539,-0.2358398
1106,19,-25.3125,36.625,0.03955078,0.152832,1.193848,0.3110352,-0.3198242,-0.2333984
1107,25.6875,-20.625,35.25,0.1069336,0.1992188,1.229492,0.3110352,-0.3198242,-0.2333984
1108,15.125,-9.6875,31.8125,0.1030273,0.1875,1.185547,0.3110352,-0.3198242,-0.2333984
1109,13.25,-5.5,30.8125,0.015625,0.2148438,1.130371,0.3110352,-0.3198242,-0.2333984
1110,8.8125,-6.625,30.3125,-0.02001953,0.2109375,1.126465,0.3188477,-0.3251953,-0.2358398
1111,8.125,-10.0625,33.0625,0.0234375,0.2495117,1.126465,0.3032227,-0.3276367,-0.2333984
1112,2.5,-18.75,35.3125,-0.0078125,0.2685547,1.11084,0.3032227,-0.3276367,-0.2333984
1113,0.5,-21.1875,37.875,-0.02001953,0.2958984,1.102539,0.3085938,-0.3330078,-0.2358398
1114,-8.0625,-25.8125,46.5,-0.1074219,0.253418,1.083008,0.3085938,-0.3457031,-0.2412109
1115,-12.5,-29.75,59.5625,-0.02392578,0.2070313,1.122559,0.3085938,-0.3457031,-0.2412109
1116,-12.8125,-25.3125,73.5625,-0.1113281,0.1762695,1.138184,0.300293,-0.3378906,-0.2387695
1117,-14.875,-23.0625,91.25,-0.3583984,0.1025391,1.154297,0.300293,-0.3378906,-0.2387695
1118,9.8125,-7,124.5625,-1.202148,-0.1518555,1.533691,0.3056641,-0.3300781,-0.2436523
1119,15.625,-13.625,150.75,-0.3862305,0.1333008,1.324219,0.2949219,-0.3330078,-0.230957
1120,4.9375,-19.5,163.3125,-0.3344727,0.137207,1.268555,0.2949219,-0.3330078,-0.230957
1121,31.75,7.375,131.5,-0.3383789,0.06396484,1.466309,0.2978516,-0.3457031,-0.2436523
1122,7.75,-6.375,73.5625,0.1191406,0.4541016,1.063477,0.2978516,-0.3457031,-0.2436523
1123,-17.8125,-19.5625,44,0.453125,0.3964844,1.059082,0.2949219,-0.3457031,-0.2387695
1124,-21.5,-31.625,27.5625,0.6918945,0.1142578,1.047363,0.2949219,-0.3530273,-0.2333984
1125,-22.375,-45.75,33.625,1.014648,0.07177734,1.122559,0.2949219,-0.3530273,-0.2333984
1126,-17,-47.6875,43.125,1.149902,0.08740234,1.185547,0.2949219,-0.3505859,-0.2490234
1127,-2,-30.4375,41.8125,0.6484375,0.3344727,1.284668,0.2924805,-0.3481445,-0.2436523
1128,1.6875,-19.3125,23.6875,0.1230469,0.3652344,1.114746,0.2924805,-0.3481445,-0.2436523
1129,-6.5625,-27.125,7.6875,0.04736328,0.2724609,1.154297,0.2841797,-0.3481445,-0.2436523
1130,-6.4375,-25.3125,-4,0.1826172,0.2495117,1.154297,0.2841797,-0.3481445,-0.2436523
1131,-4.9375,-12.6875,-12.5625,0.3217773,0.1645508,1.106934,0.2788086,-0.3530273,-0.2412109
1132,-2.5,-20.3125,6.5625,0.2143555,0.1953125,1.189941,0.2871094,-0.3481445,-0.2387695
1133,-16.875,-0.5,-3.0625,0.2978516,0.1411133,0.9487305,0.2871094,-0.3481445,-0.2387695
1134,-14.4375,10.875,-10.1875,0.222168,0.02148438,1.075195,0.2763672,-0.355957,-0.2358398
1135,8.1875,16,-2,0.03515625,-0.08251953,1.075195,0.2763672,-0.355957,-0.2358398
1136,17.125,19.1875,16.875,-0.05175781,0.1259766,0.9287109,0.2763672,-0.3481445,-0.2436523
1137,15.625,19.5625,25.25,0,0.2299805,0.8930664,0.2871094,-0.340332,-0.2568359
1138,5.125,16.6875,26,-0.01171875,0.2880859,0.8852539,0.2871094,-0.340332,-0.2568359
1139,0.6875,8.125,26.0625,-0.05566406,0.152832,0.8891602,0.2709961,-0.3583984,-0.2519531
1140,-14.0625,8.4375,31.625,0.07128906,0.1606445,0.972168,0.2895508,-0.3505859,-0.2436523
1141,-16.75,8.625,32.5,0.04736328,0.09082031,1.011719,0.2895508,-0.3505859,-0.2436523
1142,-13.3125,2.6875,36.5625,0.1943359,0.2651367,1.023926,0.2817383,-0.3457031,-0.230957
1143,-24.3125,1,26.5,0.2421875,0.2260742,1.146484,0.2817383,-0.3457031,-0.230957
1144,-64.75,-17.125,-0.6875,0.1704102,0.137207,1.335938,0.2895508,-0.3481445,-0.246582
1145,-49.75,9.4375,13.375,0.09082031,0.07568359,1.304199,0.2763672,-0.3432617,-0.2358398
1146,-44.625,13.5625,-2.4375,0.1230469,-0.09375,1.177734,0.2763672,-0.3432617,-0.2358398
1147,-32.625,16.4375,16.0625,0.1030273,0.08740234,1.098633,0.2788086,-0.3457031,-0.2358398
1148,-36,20.8125,24.75,0.05908203,0.08740234,1.075195,0.2788086,-0.3457031,-0.2358398
1149,-30.25,13.75,30.125,-0.09570313,0.1489258,1.043457,0.2841797,-0.340332,-0.2412109
1150,-27,10.625,26.5625,-0.08740234,0.1064453,1.035645,0.2817383,-0.3378906,-0.246582
1151,-29.1875,13.5,35.4375,-0.1035156,0.07958984,1.130371,0.2817383,-0.3378906,-0.246582
1152,-29.8125,13.25,39.625,-0.07177734,0.09472656,1.067383,0.2895508,-0.3330078,-0.2436523
1154,-42.75,16.9375,51.6875,-0.09570313,0.137207,0.9448242,0.2924805,-0.3276367,-0.2358398
1155,-61.6875,22.875,63.1875,0.05126953,0.3574219,1.047363,0.2924805,-0.3276367,-0.2358398
1156,-77.9375,24.125,46.875,0.2104492,0.4077148,0.972168,0.300293,-0.3227539,-0.2333984
1157,-86.875,22.6875,29.6875,0.1108398,0.2763672,1.007813,0.300293,-0.3227539,-0.2333984
1158,-85.625,20.3125,22.75,0.1865234,0.2338867,1.122559,0.2949219,-0.3046875,-0.2387695
1159,-82.4375,15.6875,12.8125,0,0.09863281,1.126465,0.300293,-0.3022461,-0.2387695
1160,-62.25,9.25,13.0625,-0.09130859,-0.04736328,1.233398,0.300293,-0.3022461,-0.2387695
1161,-45.25,6.9375,18.6875,-0.04785156,0.005859375,1.193848,0.300293,-0.3022461,-0.2358398
1162,-36.8125,1.3125,19.1875,-0.2587891,-0.02050781,1.181641,0.300293,-0.3022461,-0.2358398
1163,-29.75,2.6875,26.0625,-0.1713867,0.1333008,1.122559,0.3032227,-0.2944336,-0.230957
1164,-28.1875,1.9375,26.3125,0.1269531,0.09863281,1.264648,0.3085938,-0.2993164,-0.2358398
1165,-4.25,6.5625,29.625,0.3300781,0.01367188,1.209473,0.3085938,-0.2993164,-0.2358398
1166,5.0625,4.625,20.375,0.2583008,0.07958984,1.166016,0.300293,-0.2890625,-0.2333984
1167,4.8125,4.5,24.75,0.1665039,-0.07080078,1.486328,0.3032227,-0.296875,-0.2333984
1168,12.125,3.125,29.3125,-0.02001953,0.03710938,1.260742,0.3032227,-0.296875,-0.2333984
1169,21.3125,-0.5,45,-0.04003906,0.07568359,1.221191,0.3032227,-0.2993164,-0.2412109
1170,24.625,-12.375,48.125,-0.04003906,0.02148438,1.150391,0.3032227,-0.2993164,-0.2412109
1171,17.75,-23,49.5,0.007324219,-0.04003906,1.05127,0.2978516,-0.3022461,-0.2333984
1172,19.25,-43,59.4375,0.03955078,-0.04736328,1.185547,0.3056641,-0.3046875,-0.2358398
1173,11.8125,-47.0625,56.6875,0.2739258,0.3999023,1.173828,0.3056641,-0.3046875,-0.2358398
1174,-25,-2.875,25.375,0.3139648,-0.04736328,0.8974609,0.2949219,-0.2944336,-0.2436523
1175,-22.1875,9.4375,31.625,0.1865234,0.01757813,1.094727,0.2949219,-0.2944336,-0.2436523
1176,-26.9375,12.3125,19.0625,0.1308594,-0.02441406,1.011719,0.300293,-0.3022461,-0.2280273
1177,-37,40.5625,10.9375,0.1987305,-0.1132813,1.071289,0.2978516,-0.3046875,-0.230957
1178,-34.5625,47.375,9.25,0.0234375,-0.1401367,1.102539,0.2978516,-0.3046875,-0.230957
1179,-19.3125,49.125,14.75,0.03955078,-0.09765625,1.122559,0.3056641,-0.3071289,-0.2280273
1180,-14,53.0625,20.125,0.0234375,-0.05517578,1.126465,0.3056641,-0.2944336,-0.2333984
1181,-9.875,51.375,17.25,0.1308594,-0.04394531,1.14209,0.3056641,-0.2944336,-0.2333984
1182,-13.4375,47.9375,-1.0625,0.1508789,-0.1479492,1.154297,0.3085938,-0.2944336,-0.230957
1183,-36.5,36.125,-22.8125,0.04736328,-0.2524414,1.237305,0.3085938,-0.2944336,-0.230957
1184,0.625,58.125,1.875,0.3061523,-0.1015625,1.450684,0.3271484,-0.3046875,-0.2358398
1185,15.625,73.8125,-21,0.4013672,-0.2871094,1.166016,0.3188477,-0.2919922,-0.2202148
1186,3.875,68.9375,-28.8125,0.09912109,-0.3642578,1.154297,0.3188477,-0.2919922,-0.2202148
1187,9,73.75,-2.625,0.06738281,-0.09375,1.268555,0.3349609,-0.2993164,-0.2255859
1188,22,71.1875,2.4375,0.05126953,0.06005859,1.130371,0.3349609,-0.2993164,-0.2255859
1189,0.5,58.9375,-17.9375,-0.03173828,0.05224609,1.019531,0.3325195,-0.2944336,-0.2226563
1190,-12.1875,55.75,-17.375,0.3657227,0.06396484,1.177734,0.3432617,-0.296875,-0.2255859
1191,-18.9375,64.25,-20.125,0.2143555,-0.04736328,1.126465,0.3432617,-0.296875,-0.2255859
1192,-19.8125,66,-26.75,0.1826172,-0.1518555,1.067383,0.3540039,-0.2890625,-0.2070313
1193,-9.5625,64.8125,-28.4375,0.08691406,-0.1713867,1.138184,0.3671875,-0.2841797,-0.2124023
1194,-0.625,66.0625,-28.125,0.1030273,-0.2060547,1.134277,0.3671875,-0.2841797,-0.2124023
1195,4.75,66.1875,-28.75,0.1943359,-0.1826172,1.20166,0.375,-0.2817383,-0.2094727
1196,3.6875,69,-26.1875,0.1269531,-0.1210938,1.264648,0.375,-0.2817383,-0.2094727
1197,-1.25,76.875,-21.75,0.1230469,-0.03613281,1.189941,0.3803711,-0.2792969,-0.1992188
1198,-14.5625,80.25,-13.875,0.06298828,0.04833984,1.25293,0.3886719,-0.2763672,-0.2094727
1199,-14.3125,92.1875,-11.3125,0.05517578,0.01367188,1.106934,0.3886719,-0.2763672,-0.2094727
1200,-27.0625,140.1875,-3.5625,0.04736328,-0.0009765625,1.059082,0.3886719,-0.2817383,-0.1938477
1201,-6.4375,123.625,6.75,-0.06347656,-0.02832031,1.098633,0.3886719,-0.2817383,-0.1938477
1202,7.3125,172.0625,-3.75,0.7519531,0.009765625,1.126465,0.3994141,-0.2841797,-0.1962891
1203,13.1875,116.5625,-6.5,-0.4101563,-0.1557617,0.6757813,0.4233398,-0.2792969,-0.1806641
1204,0,68.5625,-2.1875,-0.4775391,0.2148438,0.7431641,0.4233398,-0.2792969,-0.1806641
1205,15.25,71,-17.625,-0.2070313,0.1450195,1.019531,0.4418945,-0.2763672,-0.175293
1206,20.9375,71.3125,-32,-0.08740234,-0.0009765625,1.166016,0.449707,-0.2739258,-0.1704102
1207,26.875,50.9375,17.25,-0.2866211,-0.004882813,0.984375,0.449707,-0.2739258,-0.1704102
1208,43.6875,81.0625,-17.5625,0.1230469,-0.2871094,1.3125,0.4550781,-0.2866211,-0.1782227
1209,55,76.9375,-17.875,-0.1474609,-0.3994141,1.264648,0.4550781,-0.2866211,-0.1782227
1210,54.8125,61.125,-1.6875,-0.4179688,-0.3066406,1.272949,0.4633789,-0.2841797,-0.1621094
1211,57.3125,50.875,-13.75,-0.4179688,-0.1479492,1.067383,0.4580078,-0.296875,-0.1542969
1212,43.0625,31.125,-19.9375,-0.4179688,-0.1674805,1.29248,0.4580078,-0.296875,-0.1542969
1213,33.1875,34.375,-30.375,-0.2905273,-0.1132813,1.205566,0.4633789,-0.296875,-0.1518555
1214,18.75,27.625,-36.6875,-0.2666016,-0.1015625,1.173828,0.4633789,-0.296875,-0.1518555
1215,-0.625,22.0625,-41.25,-0.4057617,-0.1518555,1.098633,0.46875,-0.2944336,-0.1572266
1216,-22,14.9375,-29.1875,-0.2944336,-0.1171875,1.166016,0.4633789,-0.2993164,-0.1518555
1217,-39.8125,9.6875,-23.5625,-0.3461914,-0.1210938,1.047363,0.4633789,-0.2993164,-0.1518555
1219,-58.4375,-4.875,-14.5625,-0.5253906,-0.2099609,1.106934,0.4765625,-0.2919922,-0.1621094
1220,-71.1875,-12.875,-3.125,-0.5532227,-0.2290039,1.185547,0.4794922,-0.2817383,-0.144043
1221,-78.3125,-15.875,7.9375,-0.4658203,-0.2446289,1.189941,0.4794922,-0.2817383,-0.144043
1222,-82.9375,-14.1875,18.875,-0.4257813,-0.1713867,1.173828,0.4794922,-0.2714844,-0.1518555
1223,-86.125,-15.5,25.1875,-0.4101563,-0.1171875,1.166016,0.4794922,-0.2714844,-0.1518555
1224,-84.6875,-21.5,17.375,-0.1713867,-0.1401367,1.11084,0.46875,-0.2739258,-0.1489258
1225,-90.5,-23.3125,37.1875,-0.6845703,-0.1865234,1.213379,0.46875,-0.2739258,-0.1489258
1226,-86.1875,-36.0625,24.1875,-0.4658203,-0.2871094,1.25293,0.46875,-0.2739258,-0.1489258
1227,-73.75,-48.5,28.1875,-0.5571289,-0.3105469,1.264648,0.4633789,-0.2509766,-0.1489258
1228,-55.9375,-79.625,27.0625,-0.652832,-0.3916016,1.122559,0.4633789,-0.2509766,-0.1489258
1229,-37.1875,-118.375,45.25,-0.5332031,-0.3256836,1.426758,0.4633789,-0.2509766,-0.1489258
1230,-32.1875,-120.5625,55.875,-0.3105469,-0.2910156,1.501953,0.4580078,-0.2485352,-0.1650391
1231,-21.4375,-103.8125,75.25,-0.2109375,-0.07470703,1.264648,0.4580078,-0.2485352,-0.1650391
1232,-72.125,-77.25,85,-0.5571289,0.09472656,0.6835938,0.4580078,-0.2485352,-0.1650391
1233,-90.9375,-93.3125,89.1875,0.644043,0.3925781,1.098633,0.4287109,-0.2558594,-0.175293
1234,-129.125,-67.5625,59.4375,0.5170898,0.5664063,0.9052734,0.4287109,-0.2558594,-0.175293
1235,-150.625,-59.6875,33.5,-0.1552734,0.1489258,1.039551,0.4287109,-0.2558594,-0.175293
1236,-156.25,-63.125,28.4375,-0.640625,-0.175293,0.8974609,0.4287109,-0.2558594,-0.175293
1237,-137.6875,-81.8125,25.3125,-0.7841797,-0.4262695,1.221191,0.4204102,-0.2382813,-0.175293
1238,-87.75,-85.0625,23.9375,-0.3740234,-0.4765625,1.249023,0.4204102,-0.2382813,-0.175293
1239,-42.4375,-83.3125,16.375,0.01123047,-0.434082,1.446777,0.4204102,-0.2382813,-0.175293
1240,7.3125,-69.9375,0.3125,0.2026367,-0.3564453,1.411133,0.4018555,-0.2099609,-0.1831055
1241,31.875,-65.125,1.125,0.2182617,-0.2910156,1.339844,0.4018555,-0.2099609,-0.1831055
1242,41.5,-58.25,-1.5,0.07519531,-0.159668,1.241211,0.4018555,-0.2099609,-0.1831055
1243,51.625,-58.5,-13.8125,-0.02783203,-0.1479492,1.205566,0.3886719,-0.2202148,-0.1860352
1244,59.25,-60.4375,-13.5625,-0.1992188,-0.1557617,1.094727,0.3886719,-0.2202148,-0.1860352
1245,61.5625,-64.125,-9.625,-0.1831055,-0.1328125,1.015625,0.3803711,-0.2304688,-0.1831055
1246,61.8125,-68.625,-6.8125,-0.1831055,-0.1210938,1.083008,0.3779297,-0.2407227,-0.1992188
1247,55.6875,-69.75,-10.75,-0.05957031,-0.09375,1.075195,0.3779297,-0.2407227,-0.1992188
1248,53.125,-71.875,-10.125,-0.02001953,-0.08251953,1.039551,0.3725586,-0.2304688,-0.2045898
1249,44.6875,-70.0625,-11.4375,0.015625,-0.07080078,1.035645,0.3725586,-0.2304688,-0.2045898
1250,37.3125,-69,-9.75,-0.02392578,-0.144043,1.035645,0.3618164,-0.2485352,-0.2124023
1251,29.25,-64.4375,-6.4375,0.01953125,-0.07470703,1.094727,0.3540039,-0.2353516,-0.2202148
1252,22.3125,-61.9375,-10.3125,0.02734375,-0.09375,1.071289,0.3540039,-0.2353516,-0.2202148
1253,13.375,-59.8125,-13.5625,0.0234375,-0.1713867,1.094727,0.3457031,-0.2382813,-0.2202148
1254,9.125,-57.5625,-16.25,-0.01611328,-0.1904297,1.102539,0.3325195,-0.2509766,-0.2202148
1255,9.375,-54.9375,-24.25,0.05517578,-0.2524414,1.086914,0.3325195,-0.2509766,-0.2202148
1256,15.6875,-52.5,-37,0.03515625,-0.3066406,1.11084,0.3325195,-0.2509766,-0.2148438
1257,35.625,-51.875,-46,0.04736328,-0.4145508,1.130371,0.3325195,-0.2509766,-0.2148438
1258,68.75,-53.6875,-51.25,-0.02001953,-0.434082,1.185547,0.3188477,-0.2329102,-0.2202148
1259,97.375,-53.3125,-52.125,-0.02783203,-0.3955078,1.11084,0.3242188,-0.253418,-0.2202148
1260,119.1875,-55.5,-48.75,-0.01171875,-0.2871094,1.086914,0.3242188,-0.253418,-0.2202148
1261,135.875,-54.4375,-64.8125,0.04736328,-0.3178711,1.075195,0.3164063,-0.2587891,-0.2358398
1262,152.5625,-52,-62.6875,-0.07958984,-0.3452148,1.146484,0.3164063,-0.2587891,-0.2358398
1263,153.0625,-51.875,-39.25,-0.05957031,-0.02832031,1.003906,0.3032227,-0.2739258,-0.2358398
1264,151.0625,-48.125,-35.9375,-0.3183594,-0.03222656,1.059082,0.2978516,-0.2919922,-0.2436523
1265,136.0625,-57.3125,0.875,-0.09570313,0.3999023,0.9804688,0.2978516,-0.2919922,-0.2436523
1266,108.875,-54.875,-43.625,0.1386719,0.08349609,1.075195,0.2949219,-0.3046875,-0.2387695
1267,161,-68,-63.75,0.09912109,-0.3837891,1.351563,0.2871094,-0.3173828,-0.246582
1268,189.875,-57.625,-30.6875,0.04736328,-0.05126953,1.126465,0.2871094,-0.3173828,-0.246582
1269,191.375,-47.375,-29,0.003417969,0.2070313,0.972168,0.2602539,-0.3432617,-0.2387695
1270,168.0625,-49.375,-24.5625,-0.01611328,0.3847656,0.9526367,0.2602539,-0.3432617,-0.2387695
1271,147.0625,-49.8125,-35.1875,0.07519531,0.4233398,1,0.2685547,-0.3662109,-0.2412109
1272,126.375,-46.875,-37.9375,0.1748047,0.3999023,1.015625,0.2685547,-0.3764648,-0.2519531
1273,116.9375,-45,-32.375,0.1469727,0.3461914,1.05127,0.2685547,-0.3764648,-0.2519531
1274,103.3125,-41.0625,-28.6875,0.1547852,0.4194336,0.9091797,0.265625,-0.3916016,-0.2412109
1275,78,-37.6875,-23.625,0.1469727,0.527832,0.8339844,0.265625,-0.3916016,-0.2412109
1276,58.6875,-38.375,-26.1875,0.06738281,0.3999023,0.8417969,0.2578125,-0.4018555,-0.2519531
1277,40.3125,-35.0625,-24.5625,0.1469727,0.5429688,1.05127,0.2416992,-0.4042969,-0.2358398
1278,35.3125,-36.25,-22.0625,0.2104492,0.4775391,0.956543,0.2416992,-0.4042969,-0.2358398
1279,1.1875,-28.875,-11.4375,0.2861328,0.581543,0.9013672,0.2338867,-0.409668,-0.246582
1280,-22.0625,-26.125,-12.6875,0.2583008,0.5161133,0.956543,0.2495117,-0.409668,-0.2490234
1281,-29.625,-25.75,-13.875,0.206543,0.4272461,0.9248047,0.2495117,-0.409668,-0.2490234
1282,-27.6875,-25.375,-14.8125,0.3818359,0.3574219,0.9487305,0.2338867,-0.4072266,-0.2436523
1284,-20.25,-24.25,-18.1875,0.4013672,0.2724609,0.9526367,0.2338867,-0.4072266,-0.2436523
1285,-6.125,-23.125,-17.6875,0.3579102,0.203125,1,0.2387695,-0.409668,-0.2436523
1286,12.375,-23.0625,-18.1875,0.3896484,0.1953125,1.039551,0.2285156,-0.3994141,-0.246582
1287,30.75,-24.3125,-21.3125,0.4013672,0.1450195,1.14209,0.2285156,-0.3994141,-0.246582
1288,53.3125,-26.5,-27.6875,0.425293,0.1298828,1.158203,0.2255859,-0.4072266,-0.246582
1289,75.4375,-29,-38.4375,0.5488281,0.1103516,1.209473,0.2255859,-0.4072266,-0.246582
1290,97.1875,-29.25,-52.1875,0.6206055,0.08740234,1.213379,0.2338867,-0.4199219,-0.246582
1291,115,-27.0625,-56.0625,0.5644531,0.07568359,1.237305,0.2231445,-0.4223633,-0.2543945
1292,139.6875,-25.125,-56.625,0.4970703,0.06396484,1.213379,0.2231445,-0.4223633,-0.2543945
1293,164.375,-20.5,-51.25,0.4375,0.1992188,1.011719,0.2148438,-0.4223633,-0.2436523
1294,167.0625,-17.3125,-52.0625,0.5566406,0.4501953,0.9365234,0.230957,-0.4682617,-0.2412109
1295,150.375,-8.0625,-58,0.65625,0.6704102,0.8735352,0.230957,-0.4682617,-0.2412109
1296,117.5625,2.375,-59.25,0.6083984,0.6938477,0.8100586,0.2148438,-0.4658203,-0.2412109
1297,87.75,7,-58.75,0.5605469,0.7246094,0.9013672,0.2148438,-0.4658203,-0.2412109
1298,68.125,7.375,-60.5,0.4135742,0.6977539,0.9208984,0.2416992,-0.4838867,-0.2387695
1299,39.625,5.25,-51.8125,0.2265625,0.6552734,1.007813,0.230957,-0.4912109,-0.2387695
1300,12.5,1.5,-42.625,0.1425781,0.546875,1.09082,0.230957,-0.4912109,-0.2387695
1301,-6.4375,-3.375,-30.375,0.1987305,0.3461914,1.154297,0.2387695,-0.4863281,-0.2333984
1302,-10.1875,-5.0625,-17.5625,0.3696289,0.2763672,1.166016,0.2387695,-0.4863281,-0.2333984
1303,-6.25,-2.6875,-8,0.4614258,0.3227539,1.166016,0.2441406,-0.496582,-0.2333984
1304,1.0625,-0.625,-2.75,0.4692383,0.4038086,1.126465,0.2255859,-0.4912109,-0.2358398
1305,2.4375,-0.25,-2.625,0.4052734,0.4775391,1.043457,0.2255859,-0.4912109,-0.2358398
1306,-2.875,-1.625,-2.875,0.3457031,0.527832,1.007813,0.2363281,-0.4863281,-0.2333984
1307,-15.8125,-3.375,-2.1875,0.3100586,0.5507813,1.023926,0.2363281,-0.480957,-0.230957
1308,-20.625,-6.1875,-3.4375,0.3618164,0.5893555,0.9248047,0.2363281,-0.480957,-0.230957
1309,-38.625,-6.5625,-6.5,0.3579102,0.5351563,1.015625,0.2441406,-0.4838867,-0.2358398
1310,-41.0625,-7.8125,-6.4375,0.3618164,0.527832,0.9682617,0.2441406,-0.4838867,-0.2358398
1311,-49.6875,-6.625,-9,0.3579102,0.4853516,1.067383,0.2363281,-0.4736328,-0.2333984
1312,-48.0625,-7.125,-10.5,0.3139648,0.4350586,1.023926,0.2338867,-0.4760742,-0.2358398
1313,-39.4375,-7.625,-9.3125,0.262207,0.3227539,0.9682617,0.2338867,-0.4760742,-0.2358398
1314,-26.5625,-9.4375,-7.25,0.234375,0.2651367,1,0.2285156,-0.4736328,-0.2333984
1315,-6.5625,-10.5625,-1.625,0.1586914,0.2148438,0.9960938,0.2285156,-0.4736328,-0.2333984
1316,17.8125,-11.25,8.875,0.1069336,0.1298828,0.972168,0.2255859,-0.4682617,-0.2387695
1317,45.0625,-12.1875,18.8125,0.08300781,0.06396484,1,0.2202148,-0.4658203,-0.230957
1318,79.4375,-13.1875,29.25,0.04345703,0.02929688,1.071289,0.2202148,-0.4658203,-0.230957
1319,118.5,-13.5625,39.625,0.08691406,0.01367188,1.138184,0.2148438,-0.4707031,-0.2387695
1320,151.375,-14.5625,48.375,0.07519531,0.08349609,1.098633,0.2231445,-0.4785156,-0.2255859
1321,172.75,-15.25,53.875,0.09521484,0.1723633,1.007813,0.2231445,-0.4785156,-0.2255859
1322,188.375,-18.375,56.875,0.09521484,0.1953125,0.9448242,0.2148438,-0.5117188,-0.2255859
1323,227.4375,-29.625,63.625,-0.2587891,-0.2753906,1.300293,0.2148438,-0.5117188,-0.2255859
1324,282.8125,-39.6875,97.4375,-0.2387695,-0.02050781,1.007813,0.2041016,-0.5424805,-0.2202148
1325,286.5625,-46.6875,55.625,0.409668,0.3076172,0.7314453,0.1987305,-0.5629883,-0.2177734
1326,314.4375,-55.875,37.0625,0.409668,0.1489258,0.7905273,0.1987305,-0.5629883,-0.2177734
1327,308.3125,-52,36.375,0.5488281,0.2880859,0.6679688,0.1884766,-0.6015625,-0.1992188
1328,265.9375,-40.8125,13.75,0.875,0.5893555,0.4624023,0.1884766,-0.6015625,-0.1992188
1329,242.625,-31.3125,7.75,0.8076172,0.6318359,0.5927734,0.1801758,-0.6293945,-0.1806641
1330,204.5625,-21.8125,3.3125,0.5927734,0.7480469,0.4663086,0.1831055,-0.6474609,-0.1518555
1331,177.375,-18.6875,-0.8125,0.4135742,0.7827148,0.5097656,0.1831055,-0.6474609,-0.1518555
1332,159.5,-20.25,-2.5625,0.3535156,0.8291016,0.5058594,0.1694336,-0.6704102,-0.1489258
1333,143.6875,-21.9375,-5.5625,0.465332,0.8793945,0.5097656,0.1855469,-0.6782227,-0.1308594
1334,129.875,-23.4375,-7.8125,0.4931641,0.890625,0.5097656,0.1855469,-0.6782227,-0.1308594
1335,117.125,-24.625,-8.25,0.5327148,0.8984375,0.4941406,0.1723633,-0.690918,-0.1279297
1336,106.8125,-24.125,-10.6875,0.5566406,0.8833008,0.4863281,0.1723633,-0.690918,-0.1279297
1337,110.5625,-23.625,-11.6875,0.5566406,0.8291016,0.5175781,0.1748047,-0.706543,-0.1147461
1338,125.8125,-22.5,-10.125,0.5605469,0.7441406,0.4663086,0.1669922,-0.7138672,-0.09667969
1339,144.8125,-18.125,-6.5,0.5209961,0.6821289,0.3676758,0.1669922,-0.7138672,-0.09667969
1340,150.75,-9.9375,3.75,0.5009766,0.8369141,0.1147461,0.1777344,-0.7216797,-0.09912109
1341,144.9375,-3.375,15.5,0.5327148,1.107422,0.1464844,0.1777344,-0.7216797,-0.09912109
1342,135.5,1.875,19.375,0.5048828,1.370117,0.1503906,0.1669922,-0.734375,-0.07519531
1343,110.875,6.875,22,0.5048828,0.9296875,-0.0390625,0.1669922,-0.7524414,-0.0703125
1344,95.375,11.125,22.75,0.4570313,1.28125,0.07128906,0.1669922,-0.7524414,-0.0703125
1345,88.625,15.3125,26.8125,0.4013672,1.11084,0.2211914,0.1748047,-0.75,-0.05712891
1346,101.3125,20.625,34.9375,0.425293,0.9296875,0.2451172,0.1640625,-0.7602539,-0.05712891
1347,126.5625,25.75,42.5,0.3774414,0.8095703,0.2646484,0.1640625,-0.7602539,-0.05712891
1349,157.75,31.625,48.875,0.3696289,0.7402344,0.2333984,0.1616211,-0.7729492,-0.04638672
1350,189.4375,38.4375,55.5,0.3696289,0.7246094,0.2373047,0.1616211,-0.7729492,-0.04638672
1351,223.875,45.0625,61.4375,0.3735352,0.7207031,0.1899414,0.1484375,-0.7832031,-0.02783203
1352,259.875,50.625,66.3125,0.3896484,0.6206055,0.2373047,0.1508789,-0.7905273,0.005859375
1353,289.125,52.25,66.3125,0.3974609,0.597168,0.1699219,0.1508789,-0.7905273,0.005859375
1354,313.5,53.875,59.5625,0.3974609,0.5507813,0.1582031,0.1586914,-0.8085938,0.02392578
1355,338.3125,56.75,57.75,0.3457031,0.5200195,0.1147461,0.1586914,-0.8085938,0.02392578
1356,361.375,58.625,59.4375,0.3774414,0.5507813,0.09863281,0.1586914,-0.8085938,0.02392578
1357,373.375,60.25,59.75,0.3139648,0.7094727,-0.09033203,0.1430664,-0.8369141,0.1030273
1358,357.5,62.8125,61.3125,0.2978516,0.972168,-0.2919922,0.1430664,-0.8369141,0.1030273
1359,307.5,67.625,65.5,0.3178711,1.509277,-0.390625,0.1430664,-0.8369141,0.1030273
1360,228.125,71.875,60.8125,0.3896484,2.053711,-0.3354492,0.1269531,-0.8676758,0.1821289
1361,117.5,79.0625,45.125,0.3857422,2.355469,-0.2763672,0.1269531,-0.8676758,0.1821289
1362,-6.375,84.5,32.6875,0.3378906,2.262695,-0.1972656,0.1269531,-0.8676758,0.1821289
1363,-112,82.3125,31.6875,0.2661133,1.937988,-0.1538086,0.1269531,-0.8676758,0.1821289
1364,-186.5625,79.3125,31.6875,0.234375,1.489746,-0.03125,0.1186523,-0.8676758,0.1767578
1365,-223.3125,76.9375,32.625,0.2460938,1.165039,0.09472656,0.1186523,-0.8676758,0.1767578
1366,-231.6875,74.4375,35.3125,0.2739258,0.8754883,0.1938477,0.1186523,-0.8676758,0.1767578
1367,-225.375,71.4375,38.5,0.2543945,0.7055664,0.2412109,0.1054688,-0.8623047,0.1450195
1368,-212,69.375,39.25,0.234375,0.6279297,0.3125,0.1054688,-0.8623047,0.1450195
1369,-202.4375,67.375,38.1875,0.2861328,0.6010742,0.2373047,0.1054688,-0.8623047,0.1450195
1370,-201,66,34.625,0.2783203,0.5585938,0.2685547,0.1030273,-0.8393555,0.09521484
1371,-199.1875,64.125,31.0625,0.2265625,0.5585938,0.2885742,0.1030273,-0.8393555,0.09521484
1372,-188.3125,60.5625,25.875,0.234375,0.4814453,0.3994141,0.1030273,-0.8393555,0.09521484
1373,-163.25,55.3125,21.625,0.1625977,0.4350586,0.5375977,0.1054688,-0.8266602,0.04003906
1374,-124.5,48.625,18.6875,0.2143555,0.3730469,0.5693359,0.1054688,-0.8266602,0.04003906
1375,-79.75,42.25,15.875,0.2460938,0.3540039,0.6245117,0.1030273,-0.8061523,0.03466797
1376,-34.5,36.5625,13.0625,0.234375,0.4350586,0.6640625,0.1030273,-0.8061523,0.03466797
1377,3.625,31.375,10,0.2700195,0.5043945,0.6679688,0.1054688,-0.8139648,0.02929688
1378,34.25,27.5625,7.125,0.3061523,0.5893555,0.671875,0.1186523,-0.8110352,0.03466797
1379,56.625,24.5,4.25,0.3217773,0.6474609,0.6362305,0.1186523,-0.8110352,0.03466797
1380,70.5,22.1875,1.9375,0.3217773,0.7631836,0.6640625,0.1030273,-0.8266602,0.02929688
1381,78.4375,20.3125,-0.3125,0.3457031,0.8330078,0.6601563,0.1132813,-0.8164063,0.03710938
1382,79.125,19.125,-2.25,0.3579102,0.8754883,0.6640625,0.1132813,-0.8164063,0.03710938
1383,74.375,18.125,-4.5625,0.3896484,0.9526367,0.6245117,0.1083984,-0.8344727,0.04492188
1384,65.875,17.125,-6.625,0.4013672,0.9912109,0.6166992,0.1083984,-0.8344727,0.04492188
1385,55.25,16.625,-8.3125,0.4331055,1.014648,0.6088867,0.1054688,-0.8291016,0.06103516
1386,41.875,16.25,-10,0.465332,1.021973,0.6245117,0.1083984,-0.8291016,0.06884766
1387,28.375,15.25,-12.4375,0.453125,1.029785,0.6166992,0.1083984,-0.8291016,0.06884766
1388,15.75,14.5625,-14.5625,0.4848633,0.9951172,0.628418,0.1186523,-0.831543,0.06103516
1389,4.875,14.375,-16.1875,0.5131836,0.9760742,0.6049805,0.1186523,-0.831543,0.06103516
1390,-3.25,14,-18.1875,0.5366211,0.9370117,0.5888672,0.121582,-0.8369141,0.06640625
1391,-10,14.125,-19.375,0.5527344,0.90625,0.5693359,0.1269531,-0.8291016,0.06103516
1392,-13.75,14.3125,-19.4375,0.4931641,0.855957,0.6245117,0.1269531,-0.8291016,0.06103516
1393,-14.25,14.5,-19.1875,0.5048828,0.8676758,0.6323242,0.1323242,-0.8369141,0.06640625
1394,-12,14.5625,-18.6875,0.4931641,0.8408203,0.644043,0.1240234,-0.8291016,0.06884766
1395,-7.5625,14.5,-17.625,0.453125,0.8637695,0.671875,0.1240234,-0.8291016,0.06884766
1396,-2.4375,14,-15.9375,0.425293,0.8330078,0.6640625,0.1240234,-0.831543,0.05810547
1397,2.0625,13.625,-13.5625,0.4174805,0.8793945,0.65625,0.1240234,-0.831543,0.05810547
1398,5.3125,12.9375,-11,0.4013672,0.887207,0.644043,0.1269531,-0.8266602,0.06640625
1399,6.75,11.6875,-8.125,0.3896484,0.8984375,0.6679688,0.1401367,-0.8291016,0.07666016
1400,6.9375,10.625,-4.75,0.4013672,0.940918,0.6484375,0.1401367,-0.8291016,0.07666016
1401,4.5625,9.875,-1.25,0.3974609,0.9370117,0.6401367,0.1401367,-0.8266602,0.06884766
1402,-0.9375,9.4375,2,0.3896484,0.9448242,0.6323242,0.1401367,-0.8266602,0.06884766
1403,-8.9375,8.5625,5.1875,0.3774414,0.9331055,0.6323242,0.1293945,-0.8291016,0.06347656
1404,-18.125,7.9375,7.875,0.3857422,0.9448242,0.6206055,0.1376953,-0.8266602,0.06103516
1405,-26.9375,6.875,10.625,0.3935547,0.9101563,0.6166992,0.1376953,-0.8266602,0.06103516
1406,-33.875,5.375,12.5,0.4052734,0.9023438,0.6005859,0.1240234,-0.8266602,0.06640625
1407,-39.75,4.0625,13.75,0.4013672,0.8291016,0.6166992,0.1323242,-0.8212891,0.06640625
1408,-43.0625,3.25,15.875,0.4052734,0.8056641,0.6323242,0.1323242,-0.8212891,0.06640625
1409,-43.75,2.25,17.75,0.4213867,0.7480469,0.644043,0.1293945,-0.8291016,0.05810547
1410,-41.8125,0.875,19.4375,0.4135742,0.7519531,0.6601563,0.1293945,-0.8291016,0.05810547
1411,-36.8125,0,20.6875,0.4213867,0.6782227,0.6323242,0.1269531,-0.8188477,0.05566406
1412,-31,-0.3125,21.8125,0.425293,0.6821289,0.6323242,0.1240234,-0.8110352,0.04785156
1414,-24.5625,-0.625,22.625,0.453125,0.6899414,0.6166992,0.1240234,-0.8110352,0.04785156
1415,-18.75,-0.125,22.8125,0.409668,0.7128906,0.6088867,0.121582,-0.8212891,0.03466797
1416,-14.3125,0.0625,22.25,0.4174805,0.7207031,0.5966797,0.121582,-0.8212891,0.03466797
1417,-11.125,1.4375,22,0.4174805,0.7519531,0.5966797,0.121582,-0.8085938,0.03710938
1418,-10.375,3.3125,21.3125,0.4052734,0.7788086,0.5493164,0.1054688,-0.8212891,0.04248047
1419,-13.125,5.375,20.9375,0.3618164,0.8291016,0.5693359,0.1054688,-0.8212891,0.04248047
1420,-17.75,7.4375,20.4375,0.4013672,0.8369141,0.5336914,0.1186523,-0.8188477,0.02929688
1421,-23.3125,9.3125,19.9375,0.3774414,0.8134766,0.5297852,0.1162109,-0.8110352,0.03222656
1422,-28.875,11.25,19.5625,0.3774414,0.8017578,0.5493164,0.1162109,-0.8110352,0.03222656
1423,-32.8125,13,19.1875,0.3896484,0.8095703,0.5610352,0.1132813,-0.8110352,0.04492188
1424,-35.875,14.625,18.6875,0.3696289,0.7788086,0.5019531,0.1132813,-0.8110352,0.04492188
1425,-38.5,16.4375,18.5,0.3857422,0.7480469,0.5136719,0.1162109,-0.8164063,0.02685547
1426,-41.125,17.25,18.375,0.3696289,0.7441406,0.5532227,0.1108398,-0.8061523,0.02929688
1427,-42.5,17.375,18,0.3696289,0.6977539,0.5693359,0.1108398,-0.8061523,0.02929688
1428,-41.875,16.75,17.25,0.3535156,0.6743164,0.5810547,0.1108398,-0.8061523,0.02392578
1429,-38.5625,16,17,0.3579102,0.6396484,0.5175781,0.1108398,-0.8061523,0.02392578
1430,-33.6875,15.125,16.375,0.3818359,0.612793,0.5654297,0.1030273,-0.8061523,0.01904297
1431,-28,14.1875,15.6875,0.3857422,0.6088867,0.5532227,0.1132813,-0.7983398,0.01611328
1432,-20.5625,13.375,14.625,0.3896484,0.597168,0.5297852,0.1132813,-0.7983398,0.01611328
1433,-13.3125,12.5,13.5625,0.4135742,0.597168,0.5136719,0.1030273,-0.793457,0.002929688
1434,-7.5,13.125,13.25,0.4492188,0.6513672,0.5058594,0.09472656,-0.8061523,0.008300781
1435,-4.6875,13.6875,12.75,0.4013672,0.6977539,0.4741211,0.09472656,-0.8061523,0.008300781
1436,-4.8125,14,12.3125,0.4052734,0.7207031,0.4902344,0.1030273,-0.8007813,0.01904297
1437,-6.375,14.25,11.6875,0.4013672,0.7285156,0.4584961,0.1030273,-0.8007813,0.01904297
1438,-7.8125,14.75,10.9375,0.3735352,0.7128906,0.4345703,0.1083984,-0.7983398,0.005859375
1439,-8.8125,14.75,10.6875,0.4013672,0.7055664,0.4584961,0.1054688,-0.8037109,0.005859375
1440,-9.4375,14.6875,10.1875,0.3974609,0.7246094,0.4624023,0.1054688,-0.8037109,0.005859375
1441,-9.6875,14.375,9.5,0.3935547,0.7285156,0.4545898,0.09472656,-0.7983398,0.005859375
1442,-9.0625,14.1875,8.75,0.3896484,0.7094727,0.4824219,0.09472656,-0.7983398,0.005859375
1443,-7.875,13.6875,8.375,0.3774414,0.7128906,0.4467773,0.1162109,-0.7983398,0.0004882813
1444,-6.25,13,7.6875,0.409668,0.7055664,0.4702148,0.1030273,-0.7958984,-0.004394531
1445,-4.0625,12,6.75,0.3774414,0.6899414,0.4345703,0.1030273,-0.7958984,-0.004394531
1446,-1.9375,11,5.9375,0.3618164,0.7363281,0.4111328,0.1162109,-0.8007813,-0.004394531
1447,-0.5,10.125,5.5,0.3735352,0.7285156,0.4345703,0.1108398,-0.8007813,0.005859375
1448,1.1875,8.9375,4.5625,0.3696289,0.7553711,0.4111328,0.1108398,-0.8007813,0.005859375
1449,2.9375,7.9375,3.8125,0.3061523,0.7480469,0.4267578,0.1083984,-0.7983398,0.005859375
1450,5.125,6.4375,2.4375,0.3457031,0.7519531,0.4033203,0.1083984,-0.7983398,0.005859375
1451,7.75,4.8125,-0.125,0.3378906,0.7592773,0.4072266,0.121582,-0.7958984,-0.006835938
1452,11.625,3.0625,-3.375,0.3417969,0.7441406,0.4428711,0.1054688,-0.8037109,0.01074219
1453,17.1875,1.4375,-6.5625,0.3496094,0.7441406,0.4467773,0.1054688,-0.8037109,0.01074219
1454,23.5,-0.5,-9.5625,0.3657227,0.7983398,0.4189453,0.1083984,-0.793457,0.01611328
1455,29.625,-1.5,-12.3125,0.3535156,0.8481445,0.4345703,0.1083984,-0.793457,0.01611328
1456,33.875,-2.4375,-14.5,0.3217773,0.8520508,0.4306641,0.1132813,-0.8037109,0.01904297
1457,35.875,-3.125,-16.125,0.3696289,0.9023438,0.4345703,0.09765625,-0.8037109,0.01904297
1458,37.5625,-3.375,-17.375,0.3579102,0.9101563,0.4428711,0.09765625,-0.8037109,0.01904297
1459,37.6875,-2.9375,-17.5625,0.4013672,0.90625,0.4584961,0.1108398,-0.8007813,0.01904297
1460,37.3125,-1.8125,-17.5,0.4135742,0.921875,0.4980469,0.1186523,-0.8061523,0.02929688
1461,35.25,-0.375,-17.25,0.4453125,0.940918,0.5219727,0.1186523,-0.8061523,0.02929688
1462,31.75,0.8125,-17.5625,0.480957,0.9487305,0.5375977,0.1186523,-0.8139648,0.02685547
1463,28.4375,1.6875,-18.1875,0.4731445,0.956543,0.5888672,0.1186523,-0.8139648,0.02685547
1464,26.5,2,-19.0625,0.5410156,0.921875,0.5927734,0.1162109,-0.8188477,0.03222656
1465,26.0625,2.25,-20.125,0.5527344,0.90625,0.6640625,0.1108398,-0.8085938,0.02685547
1466,27.25,3.125,-21.1875,0.5410156,0.9023438,0.612793,0.1108398,-0.8085938,0.02685547
1467,28.75,4.25,-22.25,0.5805664,0.9487305,0.6640625,0.121582,-0.8110352,0.04248047
1468,31,6.4375,-23.0625,0.6005859,0.9487305,0.6640625,0.121582,-0.8110352,0.04248047
1469,32.5,9.6875,-23.4375,0.6206055,1.014648,0.6601563,0.1186523,-0.8061523,0.03710938
1470,33.4375,13.375,-23.0625,0.6484375,0.9873047,0.6879883,0.121582,-0.8164063,0.04492188
1471,32.9375,17.1875,-22.5,0.644043,1.057129,0.6918945,0.121582,-0.8164063,0.04492188
1472,30.375,20.4375,-21.8125,0.6640625,1.049316,0.7192383,0.1401367,-0.8188477,0.04248047
1473,27,23.1875,-20.5,0.6362305,1.064941,0.7392578,0.1347656,-0.8110352,0.06103516
1474,22.5625,25.0625,-19.1875,0.6401367,1.103516,0.7036133,0.1347656,-0.8110352,0.06103516
