Packet number,Gyroscope X (deg/s),Gyroscope Y (deg/s),Gyroscope Z (deg/s),Accelerometer X (g),Accelerometer Y (g),Accelerometer Z (g),Magnetometer X (G),Magnetometer Y (G),Magnetometer Z (G)
114,2.8125,0.3125,7.25,0.2939453,-0.02050781,1.071289,0.2016602,-0.1948242,-0.2358398
115,4.75,14.8125,7.875,0.2700195,0.03710938,1.094727,0.2016602,-0.1894531,-0.2358398
116,3.625,16.4375,6.875,0.2421875,-0.0009765625,1.067383,0.2016602,-0.1894531,-0.2358398
117,4.625,15.6875,7.0625,0.2700195,-0.03222656,1.035645,0.2016602,-0.1894531,-0.2358398
118,8.125,13.3125,7.75,0.2783203,-0.02441406,1.003906,0.2041016,-0.1918945,-0.2333984
119,11.1875,11.8125,8,0.2861328,-0.04003906,0.9960938,0.2041016,-0.1918945,-0.2333984
120,14.625,10.9375,8.4375,0.3061523,-0.02050781,1.007813,0.2041016,-0.1918945,-0.2333984
121,16.75,10.625,9.0625,0.2900391,0.001953125,1.031738,0.2124023,-0.1870117,-0.2387695
122,17.6875,10.625,9.625,0.3178711,0.01367188,1.075195,0.2124023,-0.1870117,-0.2387695
123,17,10.0625,10,0.2939453,0.02929688,1.059082,0.2094727,-0.2075195,-0.2387695
124,16.875,9.8125,9.9375,0.2939453,-0.004882813,1.079102,0.2094727,-0.2075195,-0.2387695
125,16.8125,10.1875,9.5,0.2783203,0.02148438,1.122559,0.2202148,-0.2021484,-0.2387695
126,14.875,11.875,8,0.2783203,0.01367188,1.098633,0.2094727,-0.2099609,-0.2412109
127,13.9375,13,6.375,0.2543945,0.02929688,1.134277,0.2094727,-0.2099609,-0.2412109
128,12.5625,14,5.0625,0.2939453,0.04101563,1.106934,0.2285156,-0.2250977,-0.2333984
129,11.6875,15.125,4,0.2304688,0.02148438,1.154297,0.2177734,-0.215332,-0.2358398
130,13.9375,12.4375,4.4375,0.2460938,0.009765625,1.122559,0.2177734,-0.215332,-0.2358398
131,16.8125,7.875,5.4375,0.2421875,0.001953125,1.055176,0.2148438,-0.2075195,-0.2358398
132,18.5625,4,6.8125,0.2382813,-0.0009765625,1.083008,0.2148438,-0.2075195,-0.2358398
133,21.6875,0.625,7.9375,0.234375,-0.02832031,1.086914,0.2202148,-0.2280273,-0.2358398
134,24.5625,-1.5625,8.25,0.2265625,0.005859375,1.106934,0.2255859,-0.2226563,-0.2358398
135,26.5625,-3.8125,8.75,0.206543,0.03320313,1.102539,0.2255859,-0.2226563,-0.2358398
136,28,-5.6875,8.375,0.2104492,0.02929688,1.11084,0.2285156,-0.2226563,-0.2412109
137,28.25,-6,8.5,0.206543,0.02929688,1.138184,0.2285156,-0.2226563,-0.2412109
138,26.6875,-4.1875,6.375,0.2104492,0.05224609,1.154297,0.2202148,-0.2280273,-0.2490234
139,25.75,-2.1875,4.4375,0.1665039,0.02539063,1.158203,0.2202148,-0.2280273,-0.2387695
140,26.6875,-1.3125,2.75,0.1987305,0.02929688,1.126465,0.2202148,-0.2280273,-0.2387695
141,28,-1.625,1.75,0.1987305,0.06005859,1.126465,0.2285156,-0.2250977,-0.2387695
142,28.9375,-1.9375,1.3125,0.2026367,0.05224609,1.11084,0.2255859,-0.2382813,-0.2436523
143,29.9375,-3.3125,2.1875,0.2104492,0.06005859,1.098633,0.2255859,-0.2382813,-0.2436523
144,31.6875,-6.75,3.875,0.1704102,0.04101563,1.09082,0.2202148,-0.2431641,-0.2490234
145,32.1875,-8.6875,5.6875,0.234375,0.09082031,1.11084,0.2202148,-0.2431641,-0.2490234
146,31.9375,-7.875,6.3125,0.2026367,0.09863281,1.126465,0.2177734,-0.2382813,-0.2543945
147,31.1875,-5.625,6.75,0.2460938,0.1025391,1.146484,0.2177734,-0.2456055,-0.2490234
148,30.25,-3.3125,7.5625,0.2182617,0.07568359,1.158203,0.2177734,-0.2456055,-0.2490234
149,28.5625,-0.5,8.4375,0.2104492,0.09472656,1.158203,0.2124023,-0.2456055,-0.2519531
150,26.4375,2.5625,8.0625,0.2304688,0.06396484,1.134277,0.2124023,-0.2456055,-0.2519531
151,23.375,4.9375,8.125,0.2265625,0.07177734,1.162109,0.2148438,-0.2509766,-0.2568359
152,20.875,7.375,7.9375,0.2421875,0.04101563,1.150391,0.2177734,-0.2661133,-0.2490234
153,18.1875,10.1875,7.625,0.2382813,0.05224609,1.14209,0.2177734,-0.2661133,-0.2490234
154,16.1875,11.5625,7.9375,0.2460938,0.01757813,1.106934,0.2177734,-0.2636719,-0.2490234
155,16.3125,12.5,7.75,0.2504883,-0.02832031,1.130371,0.230957,-0.2612305,-0.2543945
156,17.5625,13.5625,7.1875,0.2382813,-0.004882813,1.126465,0.230957,-0.2612305,-0.2543945
157,18.9375,14.375,6.75,0.2304688,-0.02441406,1.09082,0.2177734,-0.2661133,-0.2519531
158,20.4375,14.625,6.6875,0.2460938,-0.04736328,1.086914,0.2177734,-0.2661133,-0.2519531
159,21.0625,14.1875,6.9375,0.2304688,-0.008789063,1.102539,0.2177734,-0.269043,-0.2412109
160,21.125,13.625,8.4375,0.2583008,-0.01660156,1.122559,0.2363281,-0.2636719,-0.2519531
161,20.3125,11.9375,10.9375,0.2700195,-0.03222656,1.154297,0.2363281,-0.2636719,-0.2519531
162,19.5625,11.125,13.75,0.2861328,-0.03222656,1.213379,0.2387695,-0.269043,-0.246582
163,17.25,9.625,16.6875,0.2900391,-0.02441406,1.217285,0.2387695,-0.269043,-0.246582
164,16.25,6.8125,19.875,0.2583008,-0.04736328,1.197754,0.2363281,-0.2714844,-0.2412109
165,15.8125,6.25,21.1875,0.2421875,-0.06689453,1.229492,0.2285156,-0.2714844,-0.2543945
166,13.5,7.3125,24.4375,0.2104492,-0.06298828,1.25293,0.2285156,-0.2714844,-0.2543945
167,11.75,8.3125,25.5625,0.2104492,-0.04394531,1.264648,0.2338867,-0.2763672,-0.2519531
168,12.25,9.75,25.0625,0.2421875,-0.08251953,1.272949,0.230957,-0.2763672,-0.2519531
169,13.8125,13,24.75,0.2583008,-0.01660156,1.256836,0.230957,-0.2763672,-0.2519531
170,10.25,16.75,25.125,0.2861328,-0.04394531,1.233398,0.2285156,-0.2792969,-0.2543945
171,7.625,19,24.5,0.2939453,-0.004882813,1.189941,0.2285156,-0.2792969,-0.2543945
172,2.8125,17.5,23.4375,0.2900391,0.001953125,1.130371,0.2441406,-0.2890625,-0.2519531
173,0.5,13.75,26.1875,0.2739258,-0.06298828,1.122559,0.2363281,-0.2841797,-0.2519531
174,-0.875,9.625,30.6875,0.2583008,0.005859375,1.154297,0.2363281,-0.2841797,-0.2519531
175,-1.6875,4.1875,36.4375,0.2460938,-0.004882813,1.118652,0.2363281,-0.2866211,-0.246582
176,-4.1875,0.25,42.5625,0.2265625,-0.02441406,1.185547,0.2363281,-0.2866211,-0.246582
177,-5.1875,0,47.9375,0.262207,-0.02441406,1.146484,0.2416992,-0.2890625,-0.2543945
179,-3.3125,2.3125,50.4375,0.234375,-0.01660156,1.189941,0.2387695,-0.2866211,-0.2412109
180,-11.375,7.5625,54.6875,0.1147461,-0.2060547,1.158203,0.2387695,-0.2866211,-0.2412109
181,-33.9375,30.1875,61.1875,0.1987305,0.07958984,1.233398,0.2441406,-0.2817383,-0.2490234
182,-20.5,31.8125,55.625,0.262207,-0.0009765625,1.225098,0.2524414,-0.2866211,-0.2436523
183,-11.3125,35.375,46.875,0.2822266,0.02539063,1.150391,0.2524414,-0.2866211,-0.2436523
184,-18.75,42,42.5625,0.206543,0.01367188,1.122559,0.2495117,-0.2866211,-0.2490234
185,-23.5625,46.3125,42.25,0.2143555,0.02929688,1.106934,0.2495117,-0.2866211,-0.2490234
186,-20.75,51.3125,42.0625,0.2026367,0.01757813,1.162109,0.265625,-0.2866211,-0.2436523
187,-18.0625,54.25,43.5625,0.1987305,-0.01269531,1.158203,0.265625,-0.2890625,-0.2412109
188,-18.3125,54.75,46.5,0.1904297,-0.01660156,1.043457,0.265625,-0.2890625,-0.2412109
189,-21.8125,51.5,50.4375,0.1748047,-0.04003906,1.031738,0.2578125,-0.2739258,-0.2412109
190,-24.375,46.875,52.5625,0.1508789,-0.02050781,1.043457,0.2578125,-0.2739258,-0.2412109
191,-21.625,39.9375,53.875,0.1269531,-0.04394531,1.055176,0.2871094,-0.2763672,-0.2333984
192,-18.625,32.75,55.1875,0.1030273,-0.05126953,1.067383,0.2871094,-0.2841797,-0.246582
193,-16.3125,29.1875,54.3125,0.1469727,-0.07861328,1.071289,0.2871094,-0.2841797,-0.246582
194,-14.9375,27.5625,52.25,0.1586914,0.001953125,1.106934,0.2895508,-0.2763672,-0.2358398
195,-17.6875,27.625,48.875,0.1586914,-0.01269531,1.063477,0.2924805,-0.2739258,-0.230957
196,-20.8125,28.4375,43.6875,0.1469727,-0.0009765625,1.05127,0.2924805,-0.2739258,-0.230957
197,-22,27.3125,40.3125,0.1108398,-0.03613281,1.09082,0.300293,-0.2866211,-0.230957
198,-21.375,23.3125,39.3125,0.04736328,-0.04736328,1.114746,0.300293,-0.2866211,-0.230957
199,-21.25,21.875,39.625,0.1108398,-0.05908203,1.14209,0.3032227,-0.2817383,-0.2280273
200,-24.625,24.1875,38.625,0.1108398,-0.08251953,1.138184,0.3032227,-0.2739258,-0.2358398
201,-27.6875,27.125,39.4375,0.1269531,-0.05908203,1.094727,0.3032227,-0.2739258,-0.2358398
202,-29.125,26.8125,42.375,0.1269531,-0.07080078,1.059082,0.3085938,-0.269043,-0.230957
203,-28.8125,23.3125,47.1875,0.1347656,-0.07861328,1.027832,0.3085938,-0.269043,-0.230957
204,-26.75,13.875,52.5,0.1230469,-0.09375,1.043457,0.3110352,-0.2792969,-0.2333984
205,-24.1875,0.125,56.375,0.1191406,-0.04394531,0.9804688,0.3164063,-0.269043,-0.2387695
206,-25.8125,-16.4375,59.8125,0.09082031,-0.109375,0.9960938,0.3164063,-0.269043,-0.2387695
207,-27.9375,-29.6875,61.6875,0.1469727,-0.01269531,1.015625,0.3110352,-0.2612305,-0.2280273
208,-30.25,-39.625,60.375,0.1943359,-0.04736328,1.043457,0.3139648,-0.2763672,-0.2333984
209,-40.5625,-46.4375,60.375,0.1748047,-0.04736328,1.063477,0.3139648,-0.2763672,-0.2333984
210,-65.5,-73.5,56.9375,0.1108398,-0.06298828,1.14209,0.3056641,-0.2661133,-0.230957
211,-37.375,-88.5625,68.6875,0.1625977,-0.07861328,1.272949,0.3056641,-0.2661133,-0.230957
212,-22.6875,-61.75,69.0625,0.3339844,0.005859375,1.217285,0.2978516,-0.2612305,-0.2358398
213,-32.625,-16.8125,60.25,0.4052734,0.001953125,1.162109,0.2895508,-0.2714844,-0.2333984
214,-58.375,17.9375,61.1875,0.3818359,-0.04003906,1.102539,0.2895508,-0.2714844,-0.2333984
215,-74.625,25.4375,70.625,0.2382813,-0.1132813,1.094727,0.2978516,-0.2612305,-0.2255859
216,-67.875,12.9375,78.625,0.2304688,-0.09375,1.150391,0.2978516,-0.2612305,-0.2255859
217,-48.4375,-4.5,78.75,0.2265625,-0.1015625,1.098633,0.2924805,-0.2509766,-0.2333984
218,-29.6875,-21.125,73.5,0.206543,-0.1132813,1.098633,0.300293,-0.2485352,-0.2280273
219,-19.1875,-34.375,68.0625,0.2143555,-0.1054688,1.079102,0.300293,-0.2485352,-0.2280273
220,-11.8125,-43.5,67.375,0.1665039,-0.1054688,1.094727,0.3032227,-0.2509766,-0.2255859
221,-2.3125,-49.0625,68.0625,0.1904297,-0.109375,1.067383,0.300293,-0.2485352,-0.230957
222,6.5625,-53.9375,65.75,0.1826172,-0.1054688,1.011719,0.300293,-0.2485352,-0.230957
223,12.1875,-60.0625,61.4375,0.1943359,-0.109375,1.007813,0.2763672,-0.2612305,-0.2387695
224,16.875,-68.4375,59.6875,0.1704102,-0.1289063,0.9882813,0.2763672,-0.2612305,-0.2387695
225,23.875,-74.375,58.3125,0.1943359,-0.08984375,0.9760742,0.2895508,-0.2587891,-0.2412109
226,34.0625,-76.875,56.5625,0.1987305,-0.07861328,1.027832,0.2841797,-0.2558594,-0.2177734
227,53,-86.375,53.4375,0.2104492,-0.08251953,0.9960938,0.2841797,-0.2558594,-0.2177734
228,71.0625,-105.875,39.9375,0.03125,0.05615234,1.05127,0.2685547,-0.2661133,-0.246582
229,97.25,-118.25,29.0625,-0.190918,-0.2988281,1.185547,0.2685547,-0.2661133,-0.246582
230,125.6875,-118.8125,51.0625,0.08300781,-0.0009765625,1.055176,0.2495117,-0.2763672,-0.2490234
231,125.8125,-121.9375,51.25,0.1469727,-0.1210938,0.8735352,0.2363281,-0.2890625,-0.246582
232,137.625,-149.6875,57.625,0.1826172,-0.06298828,0.7509766,0.2363281,-0.2890625,-0.246582
233,157.875,-183.25,59.0625,0.2026367,-0.109375,0.7036133,0.2285156,-0.3149414,-0.2543945
234,166.3125,-203.6875,39.625,0.3139648,0.152832,0.1303711,0.2041016,-0.3198242,-0.2568359
235,111.0625,-197.5,28.5625,0.09521484,-0.1401367,0.5849609,0.2041016,-0.3198242,-0.2568359
236,82.3125,-197.25,28.375,0.1665039,0.03710938,0.7749023,0.1801758,-0.3457031,-0.262207
237,89.875,-190.5625,26.25,0.3139648,0.09472656,0.8417969,0.1801758,-0.3457031,-0.262207
238,101.3125,-198.375,28.4375,0.4135742,0.2416992,0.9526367,0.1669922,-0.3481445,-0.2568359
239,111.9375,-193.875,28.125,0.4614258,0.2338867,0.9013672,0.1240234,-0.3789063,-0.2519531
240,113.875,-205.1875,19.875,0.4848633,0.2724609,1.130371,0.1240234,-0.3789063,-0.2519531
241,125.5,-180.5,2.75,0.4492188,0.2338867,1.29248,0.1030273,-0.3813477,-0.2568359
242,120.125,-129.9375,-0.4375,0.4052734,0.2260742,1.316406,0.1030273,-0.3813477,-0.2568359
244,98.5,-76.375,4,0.4492188,0.2456055,1.276855,0.08398438,-0.3969727,-0.2568359
245,76.4375,-30.625,8.1875,0.4770508,0.2495117,1.209473,0.07617188,-0.4018555,-0.2519531
246,60.3125,-6.75,12.4375,0.4331055,0.2070313,1.063477,0.07617188,-0.4018555,-0.2519531
247,51,-2.625,14.625,0.5488281,0.3149414,1.055176,0.07324219,-0.4145508,-0.246582
248,-7.8125,34.5,16.4375,0.8193359,0.4926758,1.490234,0.07324219,-0.4248047,-0.2412109
249,-61.3125,103.25,32.9375,0.8510742,0.1762695,1.612793,0.07324219,-0.4248047,-0.2412109
250,13.3125,64.75,43.3125,0.6762695,0.3886719,1.166016,0.08154297,-0.4121094,-0.2519531
251,24.1875,36.125,48.5,0.5131836,0.3110352,0.9960938,0.08154297,-0.4121094,-0.2519531
252,2.625,35.625,54.4375,0.222168,0.2573242,1.007813,0.09472656,-0.4145508,-0.2519531
253,-340.25,145.75,40.375,1.241211,-0.2177734,-0.2207031,0.08398438,-0.4145508,-0.246582
254,-247.25,116,59.5625,0.3774414,0.2495117,-0.09033203,0.08398438,-0.4145508,-0.246582
255,-303.1875,75.6875,56.6875,0.2783203,0.09863281,1.316406,0.1083984,-0.3686523,-0.262207
256,-221.8125,108,32.3125,0.4052734,0.06787109,2.150391,0.1083984,-0.3686523,-0.262207
257,-58.125,133.6875,28.5625,0.465332,-0.2177734,1.581055,0.1186523,-0.3330078,-0.262207
258,-95.4375,66.125,22.5,0.3017578,0.1220703,0.5810547,0.1240234,-0.340332,-0.262207
259,-70.0625,103.25,107.1875,0.1904297,-0.5419922,1.458496,0.1240234,-0.340332,-0.262207
260,-19.25,191.875,179.75,0.2382813,-0.3066406,1.296387,0.1269531,-0.3173828,-0.2597656
261,-10.125,170.9375,192.75,0.3256836,-0.1713867,1.249023,0.1586914,-0.3125,-0.2651367
262,38.5,163.1875,201.125,0.4614258,-0.2250977,1.332031,0.1586914,-0.3125,-0.2651367
263,55.8125,175.5625,196.8125,0.3857422,-0.07861328,1.154297,0.1831055,-0.3173828,-0.2543945
264,40.375,132.9375,167.1875,0.2822266,-0.0009765625,1.134277,0.1831055,-0.3173828,-0.2543945
265,20,61.375,129.5625,0.2783203,0.05615234,1.158203,0.2094727,-0.3227539,-0.246582
266,7.5,13.0625,108.5,0.2700195,-0.07861328,1.241211,0.2094727,-0.3227539,-0.246582
267,6.375,1.3125,110.75,0.3061523,-0.1635742,1.284668,0.2094727,-0.3227539,-0.246582
268,7.875,8.25,111.9375,0.3774414,-0.1054688,1.304199,0.2177734,-0.3300781,-0.2436523
269,5.9375,17.5625,105.4375,0.3417969,-0.1401367,1.229492,0.2177734,-0.3300781,-0.2436523
270,-6.625,18.6875,96.625,0.3579102,-0.1015625,1.166016,0.2177734,-0.3300781,-0.2436523
271,-21.5625,13.5,83.125,0.3657227,-0.09375,1.138184,0.2148438,-0.3227539,-0.2519531
272,-37.4375,0.8125,75.5625,0.3696289,-0.109375,1.122559,0.2148438,-0.3227539,-0.2519531
273,-47.25,-8.875,75.75,0.3657227,-0.1328125,1.162109,0.2148438,-0.3227539,-0.2519531
274,-44.625,-2.9375,74.5625,0.4174805,-0.125,1.166016,0.2124023,-0.3276367,-0.2597656
275,-34.75,8.0625,70.8125,0.4135742,-0.1210938,1.173828,0.2124023,-0.3276367,-0.2597656
276,-23.6875,18.5,66.5,0.4213867,-0.1362305,1.185547,0.2124023,-0.3276367,-0.2597656
277,-18.6875,22,62.875,0.3818359,-0.06689453,1.130371,0.2124023,-0.3276367,-0.2597656
278,-18.3125,19.6875,63,0.3457031,-0.05908203,1.14209,0.2202148,-0.3300781,-0.2387695
279,21.6875,63.5625,26.625,-0.1669922,0.581543,1.916992,0.2202148,-0.3300781,-0.2387695
280,11.8125,80,47.0625,-0.04003906,0.581543,2.671875,0.2202148,-0.3300781,-0.2387695
281,21,38.125,93.5,0.3896484,0.1723633,1.027832,0.230957,-0.3227539,-0.2490234
282,8.9375,18.9375,65.625,0.1748047,0.001953125,1.217285,0.230957,-0.3227539,-0.2490234
283,1.0625,11.375,83.9375,0.2900391,0.04443359,1.189941,0.230957,-0.3227539,-0.2490234
284,9.25,8.6875,111.75,0.2304688,-0.02441406,1.20166,0.2338867,-0.3354492,-0.2436523
285,20.1875,20.625,136.5,0.1625977,0.01367188,1.166016,0.2338867,-0.3354492,-0.2436523
286,27.5,32.625,155.875,0.1469727,0.09472656,1.158203,0.2338867,-0.3354492,-0.2436523
287,73.125,32.8125,145.4375,-0.3222656,-0.8862305,0.5375977,0.2524414,-0.3457031,-0.2436523
288,75.1875,-23,136.5,-0.6728516,-1.021484,1.043457,0.2524414,-0.3457031,-0.2436523
289,61.6875,-40.75,73.4375,0.7319336,-0.2177734,1.335938,0.2524414,-0.3457031,-0.2436523
290,53.5625,-23.9375,-6.5,0.7358398,-0.4223633,1.122559,0.2524414,-0.3457031,-0.2436523
291,42.8125,-6.3125,-6.4375,0.4174805,-0.3603516,1.102539,0.2363281,-0.3686523,-0.2597656
292,21.25,5.4375,14,0.3579102,-0.402832,0.8974609,0.2387695,-0.3710938,-0.246582
293,-26.6875,17.5625,33.4375,0.5087891,-0.4995117,0.9760742,0.2387695,-0.3710938,-0.246582
294,-36.625,10.75,55.875,0.4013672,-0.7045898,0.7983398,0.2441406,-0.3710938,-0.2543945
295,-18.1875,-16.0625,89.9375,0.4614258,-0.6269531,0.8378906,0.2416992,-0.3608398,-0.2436523
296,-7.75,-27.375,98.5,0.5966797,-0.2524414,0.9208984,0.2416992,-0.3608398,-0.2436523
297,-8.625,-40.9375,82.4375,0.5131836,-0.1289063,0.8974609,0.2416992,-0.3608398,-0.2519531
298,-24.5625,-51.9375,84.4375,0.3139648,-0.1674805,0.9526367,0.2416992,-0.3608398,-0.2519531
299,-27.625,-63,91,0.3618164,-0.07470703,1.083008,0.230957,-0.3686523,-0.2436523
300,-18.5,-68.3125,82,0.3696289,0.001953125,1.213379,0.2231445,-0.3632813,-0.2543945
301,-12.1875,-65.375,73.75,0.2900391,-0.05908203,1.332031,0.2231445,-0.3632813,-0.2543945
302,-8.9375,-53.5625,71.3125,0.222168,-0.1054688,1.466309,0.2177734,-0.3710938,-0.2568359
303,-5.875,-34.375,67,0.1826172,-0.08984375,1.541504,0.2177734,-0.3710938,-0.2568359
304,-5.25,-12.8125,60.625,0.05517578,-0.09375,1.584961,0.2041016,-0.355957,-0.2568359
305,-9.625,3.9375,55.625,-0.07958984,-0.04736328,1.557129,0.2094727,-0.3608398,-0.2490234
306,-14.625,17.625,52.5625,-0.1791992,-0.07861328,1.569336,0.2094727,-0.3608398,-0.2490234
307,-21.5625,31.1875,46.5,-0.2226563,-0.05908203,1.561035,0.2041016,-0.3608398,-0.2597656
309,-30.375,45.625,33.25,-0.3222656,-0.05908203,1.600586,0.2124023,-0.3686523,-0.262207
310,-33.1875,68.6875,26,-0.3623047,-0.1401367,1.59668,0.2124023,-0.3686523,-0.262207
311,-31.4375,91.25,17.4375,-0.5214844,-0.1132813,1.466309,0.2177734,-0.3530273,-0.2597656
312,-31.4375,107.25,8.8125,-0.5175781,-0.08642578,1.40332,0.2177734,-0.3530273,-0.2597656
313,-34.25,123.1875,-6.6875,-0.5371094,-0.04003906,1.316406,0.230957,-0.3608398,-0.2543945
314,-29.8125,140.125,-19.4375,-0.6088867,-0.08984375,1.3125,0.2470703,-0.3530273,-0.2519531
315,-11,157.375,-29,-0.5810547,-0.1210938,1.158203,0.2470703,-0.3530273,-0.2519531
316,8.3125,171.1875,-39,-0.5415039,-0.1132813,1.083008,0.2685547,-0.3505859,-0.2387695
317,28,181.875,-50.3125,-0.4814453,-0.1479492,0.9208984,0.2685547,-0.3505859,-0.2387695
318,48.25,191.625,-58.875,-0.3623047,-0.1826172,0.8261719,0.2788086,-0.3530273,-0.2387695
319,69.875,193.3125,-63.8125,-0.3027344,-0.175293,0.6362305,0.2978516,-0.355957,-0.2226563
320,80.375,184.75,-69.8125,-0.1992188,-0.1557617,0.4189453,0.2978516,-0.355957,-0.2226563
321,78.75,159.4375,-77.4375,-0.1074219,-0.04736328,0.2172852,0.3164063,-0.3608398,-0.2255859
322,69.9375,113.625,-88.0625,-0.07958984,-0.03222656,0.04736328,0.3486328,-0.3632813,-0.2177734
323,60.1875,56.6875,-94.8125,-0.04785156,-0.05908203,0,0.3486328,-0.3632813,-0.2177734
324,49.0625,4,-92.375,0.2104492,-0.1132813,0.04736328,0.3510742,-0.3735352,-0.2226563
325,43.9375,-40.6875,-95.5,0.3139648,-0.1401367,0.1108398,0.3510742,-0.3735352,-0.2226563
326,37.625,-83.625,-88.375,0.3579102,-0.1557617,0.1420898,0.3564453,-0.3735352,-0.2177734
327,28.1875,-120.6875,-78.4375,0.4570313,-0.1171875,0.2685547,0.3378906,-0.355957,-0.2226563
328,26.9375,-148.5625,-75.125,0.5209961,-0.05908203,0.4506836,0.3378906,-0.355957,-0.2226563
329,30.875,-165.75,-69.125,0.5087891,-0.02050781,0.5571289,0.3188477,-0.3710938,-0.2255859
330,38.25,-176.125,-66.8125,0.5883789,0.06396484,0.7270508,0.3188477,-0.3710938,-0.2255859
331,43,-179.5625,-72.6875,0.65625,0.1796875,0.8696289,0.3056641,-0.3583984,-0.2412109
332,33.5,-178.875,-81.375,0.6123047,0.2958984,0.9960938,0.2871094,-0.3710938,-0.2436523
333,13.625,-181.4375,-91.1875,0.6206055,0.3691406,1.09082,0.2871094,-0.3710938,-0.2436523
334,-0.25,-174.75,-101.4375,0.644043,0.3730469,1.328125,0.265625,-0.3662109,-0.2358398
335,21.0625,-122.375,-106.75,0.6083984,0.4350586,1.600586,0.2524414,-0.3686523,-0.246582
336,53.3125,-82,-117.25,0.5766602,0.3964844,1.60498,0.2524414,-0.3686523,-0.246582
337,82.25,-48,-119.625,0.6044922,0.4350586,1.375488,0.2387695,-0.3662109,-0.2568359
338,97.0625,-39.5,-123.3125,0.5805664,0.4887695,1.20166,0.2387695,-0.3662109,-0.2568359
339,108.9375,-54.25,-128.4375,0.4931641,0.5083008,1.071289,0.230957,-0.3867188,-0.2490234
340,117.9375,-69.1875,-133.9375,0.5288086,0.5703125,1.067383,0.2285156,-0.3891602,-0.2543945
341,131.0625,-56.6875,-142.6875,0.9350586,0.1606445,4.375488,0.2285156,-0.3891602,-0.2543945
342,608.75,631.4375,-87.625,0.5449219,-0.2060547,1.849609,0.2255859,-0.4018555,-0.246582
343,347.0625,436,-98,0.7675781,0.5507813,1,0.2255859,-0.4018555,-0.246582
344,110.8125,111,-130,0.4414063,0.6474609,-0.8334961,0.2817383,-0.4658203,-0.2333984
345,-30.6875,9.3125,-78.8125,0.06298828,-0.1865234,0.8183594,0.3085938,-0.4736328,-0.2148438
346,-51,25.875,9.3125,0.3696289,-0.1132813,1.169922,0.3085938,-0.4736328,-0.2148438
347,-0.125,20.4375,-8.9375,0.628418,0.1333008,0.8696289,0.3188477,-0.4658203,-0.2177734
348,-21,11.9375,-35.4375,0.3774414,0.01757813,0.6640625,0.3139648,-0.4633789,-0.2094727
349,-86.8125,19,-29.25,0.2822266,-0.05908203,0.9526367,0.3139648,-0.4633789,-0.2094727
350,-116.5,32.1875,-23,0.1508789,0.005859375,1.213379,0.3217773,-0.4658203,-0.2148438
351,-102.625,23.6875,-28.875,-0.08740234,0.152832,0.956543,0.3217773,-0.4658203,-0.2148438
352,-87.3125,17.125,-39.6875,-0.1430664,0.02539063,1.260742,0.3271484,-0.453125,-0.2202148
353,3.5625,-14.3125,-51,-0.09130859,0.1025391,0.6245117,0.3295898,-0.4428711,-0.2226563
354,-34,-37.625,-42.875,-0.2548828,0.1835938,0.9526367,0.3295898,-0.4428711,-0.2226563
355,-60.125,-22.0625,-36.5625,-0.2626953,0.2998047,1.09082,0.3188477,-0.4375,-0.2255859
356,-50.9375,-12.6875,-95.5,0.1147461,0.3076172,1.14209,0.3188477,-0.4375,-0.2255859
357,-54.625,-7.1875,-127.8125,0.1547852,0.009765625,1.118652,0.3295898,-0.4272461,-0.2255859
358,-54.1875,-9.0625,-131.375,0.1030273,-0.09765625,1.102539,0.3217773,-0.4169922,-0.2226563
359,-52.875,-10,-130.5625,0.1547852,-0.2177734,1.083008,0.3217773,-0.4169922,-0.2226563
360,-49.0625,-18.625,-132.5625,0.2460938,-0.1982422,1.083008,0.3295898,-0.409668,-0.2226563
361,-33,-32.25,-124.375,0.1269531,-0.2675781,1.118652,0.3242188,-0.3916016,-0.2333984
362,-1.75,-46.5,-103.5625,-0.4018555,-0.4956055,1.379395,0.3242188,-0.3916016,-0.2333984
363,7.9375,-49,-89.25,0.1108398,-0.1210938,1.114746,0.3139648,-0.394043,-0.2255859
364,15.3125,-51.3125,-85.8125,0.1469727,-0.04003906,1.197754,0.3139648,-0.394043,-0.2255859
365,25.5625,-57.75,-90.8125,0.1347656,0.02539063,1.146484,0.3188477,-0.3867188,-0.2255859
366,46.4375,-68.75,-93.6875,0.07910156,0.009765625,1.276855,0.3139648,-0.3813477,-0.2387695
367,72.625,-81.5625,-93.125,0.09912109,0.005859375,1.272949,0.3139648,-0.3813477,-0.2387695
368,78.8125,-92.0625,-95,0.09082031,0.03710938,1.209473,0.2978516,-0.3837891,-0.230957
369,64.875,-92.9375,-94.3125,0.09912109,0.07568359,1.209473,0.2978516,-0.3837891,-0.230957
370,36.125,-87.5,-87.375,0.04736328,0.09472656,1.245117,0.2895508,-0.3969727,-0.2333984
371,1.1875,-79.375,-78.125,-0.03173828,0.1259766,1.264648,0.2841797,-0.3969727,-0.2387695
372,-38.5625,-66.5,-10.6875,-0.1274414,0.05224609,1.225098,0.2841797,-0.3969727,-0.2387695
374,-82.3125,-49.0625,28.625,0.01123047,0.3383789,1.213379,0.265625,-0.3867188,-0.2387695
375,-124.4375,-32.125,1.625,0.06298828,0.3925781,1.237305,0.2685547,-0.3735352,-0.2412109
376,-138.4375,-21.75,-50.25,0.05517578,0.2299805,1.335938,0.2685547,-0.3735352,-0.2412109
377,-114.4375,-27.875,-86.125,0.05126953,0.04443359,1.375488,0.2817383,-0.3583984,-0.2436523
378,-65.625,-48.1875,-99.75,0.07519531,-0.09765625,1.316406,0.2817383,-0.3583984,-0.2436523
379,-15.5625,-72.8125,-96.9375,0.1625977,-0.125,1.264648,0.2685547,-0.3457031,-0.2358398
380,4.125,-84.625,-102.6875,0.2265625,0.01757813,1.205566,0.2524414,-0.3481445,-0.2519531
381,-4.75,-81.25,-108.25,0.1748047,-0.01269531,1.193848,0.2524414,-0.3481445,-0.2519531
382,-21.625,-72.4375,-103.4375,0.1191406,-0.004882813,1.209473,0.2470703,-0.340332,-0.2436523
383,-34.375,-62.8125,-92.75,0.1269531,0.01757813,1.185547,0.2470703,-0.340332,-0.2436523
384,-38.5625,-55.75,-84.9375,0.1508789,0.005859375,1.217285,0.2416992,-0.3432617,-0.2436523
385,-36.125,-50.3125,-82.5625,0.1943359,0.01757813,1.209473,0.2338867,-0.3300781,-0.2543945
386,-31.125,-45.8125,-82.0625,0.1943359,-0.03613281,1.173828,0.2338867,-0.3300781,-0.2543945
387,-26.5,-42.375,-81.9375,0.1987305,-0.07470703,1.162109,0.2231445,-0.3149414,-0.2519531
388,-25.5,-39.6875,-81.125,0.2026367,-0.09375,1.126465,0.2231445,-0.3149414,-0.262207
389,-26.6875,-36,-79.625,0.1943359,-0.07470703,1.086914,0.2231445,-0.3149414,-0.262207
390,-29.125,-32.125,-77.5,0.1665039,-0.05126953,1.154297,0.2148438,-0.3125,-0.2490234
391,-30.375,-27.5,-75.1875,0.1625977,-0.09765625,1.118652,0.2148438,-0.3125,-0.2490234
392,-30.75,-22.75,-73.875,0.1943359,-0.08642578,1.134277,0.2124023,-0.3071289,-0.2543945
393,-30.1875,-18.8125,-74.1875,0.1748047,-0.1015625,1.126465,0.2124023,-0.3071289,-0.2568359
394,-29.5,-14.8125,-76.1875,0.2104492,-0.1328125,1.154297,0.2124023,-0.3071289,-0.2568359
395,-29.4375,-11.1875,-78.6875,0.1865234,-0.1015625,1.150391,0.1987305,-0.2993164,-0.2543945
396,-30.3125,-7.0625,-79.6875,0.1787109,-0.09765625,1.162109,0.1987305,-0.2993164,-0.2543945
397,-31.9375,-2.25,-81.3125,0.1748047,-0.1015625,1.185547,0.2016602,-0.2919922,-0.2568359
398,-32.25,2.3125,-83.0625,0.1704102,-0.109375,1.173828,0.2124023,-0.296875,-0.2597656
399,-31.25,5.6875,-83.3125,0.1826172,-0.1210938,1.158203,0.2124023,-0.296875,-0.2597656
400,-31.25,6.25,-83.4375,0.1943359,-0.1328125,1.122559,0.190918,-0.296875,-0.2597656
401,-32.625,3.5,-81.375,0.1665039,-0.1015625,1.154297,0.2016602,-0.2890625,-0.2543945
402,-35.75,0.25,-80.625,0.1586914,-0.07861328,1.146484,0.2016602,-0.2890625,-0.2543945
403,-38.375,-3.375,-83.1875,0.1826172,-0.05908203,1.14209,0.1987305,-0.2714844,-0.2519531
404,-39.875,-7,-85.9375,0.2143555,-0.06689453,1.150391,0.1987305,-0.2714844,-0.2519531
405,-42.6875,-9.1875,-89.8125,0.2104492,-0.05908203,1.177734,0.1987305,-0.2714844,-0.2436523
406,-44.5,-11.125,-92.5625,0.206543,-0.04003906,1.197754,0.190918,-0.2636719,-0.2519531
407,-44.4375,-11.6875,-92.3125,0.234375,-0.05517578,1.177734,0.190918,-0.2636719,-0.2519531
408,-44.6875,-9.9375,-89.8125,0.2382813,-0.06298828,1.158203,0.2041016,-0.2612305,-0.2436523
409,-46.6875,-5.625,-86.3125,0.2421875,-0.1210938,1.173828,0.2041016,-0.2612305,-0.2436523
410,-48.5625,0.9375,-82,0.2304688,-0.144043,1.217285,0.1831055,-0.2485352,-0.2651367
411,-44.5,5.5625,-74.5625,0.1147461,-0.1865234,1.205566,0.1884766,-0.2382813,-0.2436523
412,-17.875,15.5,-65,-0.03173828,-0.04394531,1.003906,0.1884766,-0.2382813,-0.2436523
413,-44.625,1.5625,-70.125,0.1826172,-0.05517578,0.8100586,0.1962891,-0.2407227,-0.246582
414,-73.5,14.4375,-87.9375,0.3417969,-0.159668,1.138184,0.1933594,-0.2226563,-0.2387695
415,-70.875,24.0625,-89.0625,0.1787109,-0.2177734,1.130371,0.1933594,-0.2226563,-0.2387695
416,-60.25,21.3125,-83.6875,0.1865234,-0.2329102,1.118652,0.1933594,-0.2280273,-0.2358398
417,-48.3125,21.25,-90.0625,0.2661133,-0.1557617,1.126465,0.1933594,-0.2280273,-0.2358398
418,-26.625,21.5,-99.75,0.1469727,-0.07861328,1.169922,0.1884766,-0.2202148,-0.2436523
419,-12.6875,15.25,-105.8125,0.1704102,-0.01269531,1.114746,0.1855469,-0.215332,-0.2333984
420,-12.875,10.0625,-110.1875,0.1865234,-0.03222656,1.043457,0.1855469,-0.215332,-0.2333984
421,-26.1875,5.875,-113.3125,0.2182617,-0.004882813,1.063477,0.1801758,-0.2050781,-0.2358398
422,-37.9375,5.125,-115.25,0.1748047,0.009765625,1.126465,0.1801758,-0.2050781,-0.2358398
423,-51,3.25,-107.3125,0.1586914,-0.0009765625,1.138184,0.1933594,-0.2075195,-0.2358398
424,-62.5,4.75,-96.4375,0.1787109,-0.05126953,1.169922,0.1855469,-0.1894531,-0.230957
425,-48.9375,13.1875,-95.125,0.08691406,0.01367188,1.126465,0.1855469,-0.1894531,-0.230957
426,-52.25,6.875,-95.6875,0.1625977,-0.004882813,1.063477,0.1855469,-0.1894531,-0.230957
427,-58.5,11,-95.3125,0.1904297,-0.05908203,1.126465,0.1831055,-0.1845703,-0.230957
428,-50.125,20.5,-92.375,0.06298828,-0.03613281,1.158203,0.1831055,-0.1845703,-0.230957
429,-44.0625,14.375,-90.625,0.07128906,-0.01660156,0.9487305,0.1831055,-0.1845703,-0.230957
430,-38.8125,11.25,-92.25,0.06738281,-0.1054688,1.035645,0.1831055,-0.1845703,-0.230957
431,-33.125,7.9375,-91.75,0.08300781,-0.1328125,1.075195,0.1723633,-0.1665039,-0.230957
432,-31.125,7.3125,-78.875,0.04345703,-0.2753906,0.9326172,0.1723633,-0.1665039,-0.230957
433,-42.3125,5.5,-64.375,0.2143555,-0.2407227,0.9013672,0.1723633,-0.1665039,-0.230957
434,-49.5625,4.375,-69.3125,0.2822266,-0.1401367,0.9804688,0.1586914,-0.1538086,-0.2280273
435,-38.875,2.375,-82.625,0.1704102,-0.04394531,1.083008,0.1586914,-0.1538086,-0.2280273
436,-23,1.3125,-94.0625,0.07128906,-0.01660156,1.130371,0.1586914,-0.1538086,-0.2280273
437,-19.6875,3.5625,-94.6875,-0.0078125,-0.008789063,1.118652,0.1640625,-0.1513672,-0.2226563
439,-27,11.0625,-78.875,-0.03564453,-0.125,1.118652,0.1640625,-0.1513672,-0.2226563
440,-38.375,18.5,-64.75,0.07128906,-0.1401367,1.067383,0.1640625,-0.1513672,-0.2226563
441,-47.5,20.375,-63.5,0.09912109,-0.1557617,0.9882813,0.1640625,-0.1484375,-0.2280273
442,-45.8125,22.625,-77.875,0.1508789,-0.06689453,1.221191,0.1640625,-0.1484375,-0.2280273
443,-24.75,20.5625,-86.6875,0.04736328,-0.02832031,1.114746,0.1640625,-0.1484375,-0.2280273
444,-15.9375,14.0625,-91.875,0.02734375,-0.02441406,1.079102,0.1640625,-0.1484375,-0.2280273
445,-23.5,11.875,-92.375,0.03955078,-0.0009765625,1.047363,0.1616211,-0.1381836,-0.2280273
446,-38.25,14.4375,-86.375,0.06298828,-0.05908203,1.059082,0.1616211,-0.1381836,-0.2280273
447,-47.5,19.5625,-82.3125,0.09521484,-0.02050781,1.079102,0.1616211,-0.1381836,-0.2280273
448,-48.375,23.375,-86.5,0.09082031,-0.04003906,1.083008,0.1508789,-0.1357422,-0.2255859
449,-46,24.25,-91.8125,0.1469727,-0.05126953,1.086914,0.1484375,-0.1152344,-0.2177734
450,-40.3125,28,-97.875,0.1586914,-0.05126953,1.035645,0.1484375,-0.1152344,-0.2177734
451,-35.0625,31.5625,-106.5625,0.1547852,-0.07080078,1.094727,0.1533203,-0.1254883,-0.2070313
452,-31.5,33,-112.375,0.1191406,-0.07470703,1.075195,0.1533203,-0.1254883,-0.2070313
453,-33.5625,32.3125,-114.1875,0.07128906,-0.1210938,1.027832,0.1347656,-0.1103516,-0.2094727
454,-38.5,33.9375,-112.5,-0.01611328,-0.1865234,1.019531,0.15625,-0.1103516,-0.2124023
455,-43.1875,34.875,-104.75,-0.02001953,-0.1943359,1.035645,0.15625,-0.1103516,-0.2124023
456,-47.1875,36.6875,-96.4375,-0.01611328,-0.2138672,1.083008,0.1347656,-0.1074219,-0.2124023
457,-47.8125,39.8125,-100.75,0.08300781,-0.1210938,1.169922,0.1347656,-0.1074219,-0.2124023
458,-35.6875,41.8125,-109.9375,0.04736328,-0.09765625,1.106934,0.1376953,-0.1000977,-0.1962891
459,-30.75,39.0625,-114.875,0.06298828,-0.1362305,1.071289,0.1484375,-0.09765625,-0.1938477
460,-36.5625,40.8125,-115.625,0.04736328,-0.1210938,1.067383,0.1484375,-0.09765625,-0.1938477
461,-45.1875,47.3125,-109.5625,0.06298828,-0.1289063,1.118652,0.1430664,-0.1025391,-0.2016602
462,-54.9375,53.6875,-105.875,0.07519531,-0.1401367,1.130371,0.1430664,-0.08447266,-0.1962891
463,-59.1875,55.875,-104.4375,0.06738281,-0.1171875,1.063477,0.1430664,-0.08447266,-0.1962891
464,-63.4375,57.9375,-106.125,0.08300781,-0.1171875,0.984375,0.1430664,-0.07958984,-0.2045898
465,-77.1875,54,-111.1875,0.07910156,-0.1713867,1.169922,0.1430664,-0.07958984,-0.2045898
466,-69.125,64.875,-106.4375,0,-0.1713867,1.205566,0.1401367,-0.07958984,-0.1860352
467,-70.6875,64.8125,-101.625,0.03515625,-0.2060547,1.122559,0.1430664,-0.07177734,-0.1860352
468,-65.5625,68.6875,-99.625,0.07128906,-0.2216797,1.083008,0.1430664,-0.07177734,-0.1860352
469,-52.5,66.75,-98.9375,0.04345703,-0.2138672,1.154297,0.1401367,-0.06689453,-0.1831055
470,-35.3125,59.125,-98.5,0.1308594,-0.1713867,1.039551,0.1401367,-0.06689453,-0.1831055
471,-21,54.4375,-94.3125,0.1069336,-0.2407227,1.114746,0.1533203,-0.05908203,-0.1831055
472,-12.5625,50.9375,-84.3125,0.1069336,-0.2138672,1.130371,0.1484375,-0.05126953,-0.1806641
473,-11.5,53.1875,-75.75,0.1308594,-0.2216797,1.197754,0.1484375,-0.05126953,-0.1806641
474,-11.5625,52.625,-70,0.1469727,-0.2250977,1.217285,0.1484375,-0.05908203,-0.175293
475,-4.75,48.9375,-63.9375,0.1865234,-0.2138672,1.280762,0.1484375,-0.05664063,-0.1806641
476,11.6875,43.75,-60.3125,0.1508789,-0.144043,1.249023,0.1484375,-0.05664063,-0.1806641
477,21.4375,31.1875,-61.1875,0.1787109,-0.1015625,1.169922,0.1401367,-0.04638672,-0.1806641
478,28.5625,23.9375,-59.625,0.2143555,-0.1328125,1.316406,0.1401367,-0.04638672,-0.1806641
479,37.4375,22.0625,-58,0.2978516,-0.07861328,1.3125,0.1376953,-0.05664063,-0.1806641
480,38,16.5,-57.5,0.2861328,-0.02832031,1.249023,0.1401367,-0.05371094,-0.1860352
481,35.5,11.8125,-53.9375,0.2700195,0.005859375,1.272949,0.1401367,-0.05371094,-0.1860352
482,32.5625,10.625,-48.5,0.2421875,0.03320313,1.280762,0.1347656,-0.05371094,-0.1831055
483,26.75,9.9375,-43.375,0.2460938,0.04101563,1.296387,0.1347656,-0.05371094,-0.1831055
484,19.5625,10.125,-41.75,0.2939453,0.1103516,1.288574,0.1269531,-0.06396484,-0.1831055
485,10.75,8.8125,-43.375,0.3579102,0.09472656,1.25293,0.1347656,-0.06933594,-0.1831055
486,4.8125,4.0625,-44.4375,0.3818359,0.1025391,1.193848,0.1347656,-0.06933594,-0.1831055
487,3.3125,-2.75,-43.375,0.3857422,0.08740234,1.185547,0.1376953,-0.06689453,-0.1860352
488,1.25,-7.5625,-39.125,0.3417969,0.09863281,1.197754,0.1269531,-0.07177734,-0.1831055
489,-2.125,-8,-32,0.3017578,0.09082031,1.213379,0.1269531,-0.07177734,-0.1831055
490,-7.125,-3.25,-24.9375,0.3217773,0.04443359,1.237305,0.1323242,-0.07714844,-0.1884766
491,-14,5.5,-20.625,0.2939453,0.01367188,1.209473,0.1323242,-0.07714844,-0.1884766
492,-21.1875,14,-21.75,0.3417969,-0.008789063,1.217285,0.1293945,-0.06933594,-0.1914063
493,-27.1875,19.3125,-26.5625,0.3378906,-0.02050781,1.154297,0.121582,-0.06933594,-0.1938477
494,-30.0625,20,-31.5625,0.3100586,-0.03222656,1.14209,0.121582,-0.06933594,-0.1938477
495,-28,15.625,-35.875,0.2900391,-0.06298828,1.154297,0.121582,-0.05664063,-0.1782227
496,-21.875,7.625,-36.375,0.2543945,-0.109375,1.071289,0.121582,-0.05664063,-0.1782227
497,-15.375,-1.4375,-33.5,0.2583008,-0.1401367,1.067383,0.1293945,-0.05908203,-0.1860352
498,-12.5,-8.75,-31,0.2900391,-0.1674805,1.031738,0.1162109,-0.05908203,-0.1831055
499,-14.125,-13.6875,-31.6875,0.2700195,-0.1787109,0.9960938,0.1162109,-0.05908203,-0.1831055
500,-23.125,-16,-35.8125,0.3339844,-0.1713867,0.9643555,0.121582,-0.06152344,-0.1806641
501,-28.3125,-13.875,-40.6875,0.3535156,-0.2177734,1.075195,0.1186523,-0.05908203,-0.1806641
502,-24.25,-12.8125,-45.1875,0.3696289,-0.1943359,1.09082,0.1186523,-0.05908203,-0.1806641
504,-17.6875,-14.6875,-45.75,0.3618164,-0.2099609,1.035645,0.1162109,-0.05908203,-0.1806641
505,-14.625,-13,-43.375,0.4052734,-0.03222656,1.075195,0.1162109,-0.05908203,-0.1806641
506,-26.125,-4.5625,-51.6875,0.3100586,-0.09765625,1.035645,0.1108398,-0.05126953,-0.1704102
507,-43.25,4.5625,-57.875,0.3178711,-0.125,1.094727,0.1000977,-0.05371094,-0.1728516
508,-55.125,12.625,-61.375,0.3378906,-0.1635742,1.067383,0.1000977,-0.05371094,-0.1728516
509,-59.3125,17,-61,0.3061523,-0.1865234,1.035645,0.09472656,-0.05664063,-0.1782227
510,-61.625,14,-58.625,0.2382813,-0.2177734,1.031738,0.09472656,-0.05664063,-0.1782227
511,-59.5,8,-57.8125,0.222168,-0.2446289,1.071289,0.1000977,-0.04101563,-0.1621094
512,-51.75,2.125,-60.1875,0.1586914,-0.2446289,1.134277,0.1000977,-0.04101563,-0.1572266
513,-43.375,-6.25,-62.625,0.1108398,-0.2368164,1.114746,0.1000977,-0.04101563,-0.1572266
514,-28.1875,-10.3125,-61.4375,0.05517578,-0.3178711,1.233398,0.08691406,-0.03076172,-0.159668
515,-13.6875,-15.25,-55.6875,0.05908203,-0.2641602,1.05127,0.08935547,-0.03613281,-0.1621094
516,-11.0625,-28.1875,-56.4375,0.08691406,-0.2563477,1.031738,0.08935547,-0.03613281,-0.1621094
517,-0.9375,-35.75,-62,0.1665039,-0.2138672,1.071289,0.07861328,-0.02587891,-0.1650391
518,11.6875,-38.0625,-67.0625,0.1469727,-0.2368164,1.11084,0.07861328,-0.02587891,-0.1650391
519,21.1875,-41.125,-66.4375,0.1386719,-0.2368164,0.9760742,0.07080078,-0.03857422,-0.1650391
520,23.25,-49.125,-64.25,0.1586914,-0.2138672,0.9487305,0.05224609,-0.04101563,-0.1621094
521,26.8125,-52.3125,-61.5,0.1904297,-0.1713867,0.9882813,0.05224609,-0.04101563,-0.1621094
522,26.75,-46.9375,-55.875,0.1943359,-0.1674805,0.9960938,0.06005859,-0.04638672,-0.1572266
523,21.375,-46.1875,-50.625,0.1943359,-0.1982422,0.9643555,0.06005859,-0.04638672,-0.1572266
524,19.9375,-42.9375,-42.8125,0.2026367,-0.2177734,1.023926,0.04394531,-0.04101563,-0.1728516
525,20.25,-40.3125,-26.3125,0.2978516,-0.2675781,0.972168,0.03613281,-0.03857422,-0.1542969
526,15.375,-51,-6.5625,0.4614258,-0.3374023,0.8144531,0.03613281,-0.03857422,-0.1542969
527,7.3125,-70.125,12.1875,0.5327148,-0.3837891,0.7392578,0.04150391,-0.03857422,-0.1621094
528,-8.3125,-105,38.3125,0.5488281,-0.5112305,0.6796875,0.02294922,-0.03857422,-0.159668
529,-23.5,-158.375,71.375,0.4492188,-0.6269531,0.7666016,0.02294922,-0.03857422,-0.159668
530,-6.5625,-198,89.9375,0.1904297,-0.3564453,0.9760742,0.02294922,-0.04101563,-0.1518555
531,11.75,-159.4375,75.4375,-0.1352539,-0.109375,1.122559,0.02294922,-0.04101563,-0.1518555
532,42.1875,-45.875,56.375,-0.2148438,-0.2021484,1.059082,0.009277344,-0.04101563,-0.1489258
533,26.25,78.375,20.5,0.07519531,-0.125,1.158203,0.009277344,-0.03857422,-0.1386719
534,-0.4375,111.8125,-19.6875,0.2900391,-0.2714844,1.146484,0.009277344,-0.03857422,-0.1386719
535,9.625,70.8125,-57.4375,0.644043,-0.2099609,1.130371,0.01220703,-0.05126953,-0.1489258
536,10.5625,40.1875,-90.375,0.3579102,-0.2250977,1.185547,0.01220703,-0.05126953,-0.1489258
537,-4.75,50.625,-84.5,0.1704102,-0.2368164,1.296387,0.01464844,-0.05371094,-0.1542969
538,-17.0625,60.5,-63.5625,0.1230469,-0.159668,1.324219,0.02001953,-0.04638672,-0.1542969
539,-30.5625,49.75,-41.3125,0.2421875,-0.1557617,1.268555,0.02001953,-0.04638672,-0.1542969
540,-98.25,146.3125,-42.375,-0.02001953,-0.3105469,0.8300781,0.006835938,-0.05126953,-0.1621094
541,19.9375,181.875,-64.75,0.7041016,0.4775391,1.296387,0.02539063,-0.03613281,-0.1489258
542,-35,95.5625,-32.5625,0.2978516,-0.2021484,1.14209,0.02539063,-0.03613281,-0.1489258
543,22.6875,71.6875,-68.875,-0.01171875,-0.1171875,1.379395,0.03320313,-0.05371094,-0.1489258
544,4.625,51.75,-74.375,0.06298828,-0.1943359,0.8339844,0.03320313,-0.05371094,-0.1489258
545,15.8125,64.6875,-42,0.5805664,-0.3027344,1.300293,0.03613281,-0.04345703,-0.1518555
546,15.875,56,-47.125,0.5288086,-0.3642578,1.213379,0.03320313,-0.05371094,-0.159668
547,13.625,44.6875,-41.6875,0.3061523,-0.4106445,1.268555,0.03320313,-0.05371094,-0.159668
548,8.6875,62.375,-35.3125,0.206543,-0.453125,1.316406,0.03857422,-0.05371094,-0.1650391
549,35.875,45.75,-42.125,0.206543,-0.2060547,1.256836,0.03857422,-0.05371094,-0.1650391
550,26.25,57.625,-69.75,0.3256836,-0.1713867,1.229492,0.04931641,-0.05908203,-0.159668
551,31.5,57,-87,0.3100586,-0.1635742,1.181641,0.046875,-0.06152344,-0.1621094
552,5.875,71.125,-98.0625,0.3974609,-0.2021484,1.276855,0.046875,-0.06152344,-0.1621094
553,-8.1875,72.125,-113,-0.1791992,-0.09765625,1.407227,0.04394531,-0.05664063,-0.1621094
554,-10.625,87.875,-120.125,-0.4897461,0.04443359,1.628418,0.04150391,-0.06396484,-0.175293
555,-11.8125,97.1875,-139.3125,-0.3662109,0.06396484,1.509766,0.04150391,-0.06396484,-0.175293
556,-11.0625,109.9375,-144.4375,-0.02783203,-0.1713867,1.264648,0.046875,-0.06933594,-0.175293
557,-7.5,118.125,-142.5625,-0.1074219,-0.2407227,0.8696289,0.046875,-0.06933594,-0.175293
558,1.25,112.5625,-140.3125,0.1069336,-0.1171875,1.3125,0.04394531,-0.07958984,-0.1831055
559,-17.1875,107.25,-139.625,-0.5371094,0.1298828,1.474121,0.046875,-0.06689453,-0.1806641
560,3.3125,127.8125,-183.5,-0.1274414,0.222168,1.316406,0.046875,-0.06689453,-0.1806641
561,41.875,113.75,-208.3125,-0.02001953,0.01367188,1.383301,0.05224609,-0.07177734,-0.1806641
562,9.9375,102.8125,-191.0625,0.1508789,-0.05126953,1.387207,0.05224609,-0.07177734,-0.1806641
563,16.875,71.625,-187.1875,-0.09130859,-0.402832,1.40332,0.0546875,-0.08740234,-0.1831055
564,-20.0625,59.0625,-158.5,0.2421875,-0.01660156,1.197754,0.046875,-0.09765625,-0.1938477
565,-26.375,45,-154.0625,-0.02783203,0.02929688,1.308105,0.046875,-0.09765625,-0.1938477
566,-18,30.4375,-167.625,-0.2426758,0.07568359,1.083008,0.04394531,-0.07714844,-0.1806641
567,-9.5625,15.6875,-201,-0.190918,0.4580078,1.09082,0.04150391,-0.08203125,-0.1782227
569,-152.375,5.4375,-422.6875,-4.242676,-1.878906,2.960449,0.04150391,-0.08203125,-0.1782227
570,-204.1875,1.6875,-383.5625,-0.7402344,0.2919922,0.1777344,0.03320313,-0.08447266,-0.1914063
571,-143.5625,-105.375,-417.25,1.511719,-1.299316,2.956543,0.03320313,-0.08447266,-0.1914063
572,-33.875,-42.875,-312.625,1.65918,-0.2021484,1.276855,-0.0009765625,-0.07958984,-0.1728516
573,-7.9375,85.625,-236.1875,0.7001953,0.009765625,0.9208984,-0.03027344,-0.09765625,-0.1728516
574,3.0625,91,-225.6875,0.0234375,-0.01660156,1.035645,-0.03027344,-0.09765625,-0.1728516
575,-13.125,48.5625,-226,0.4692383,0.01367188,1.383301,-0.04101563,-0.09472656,-0.1704102
576,-12.1875,69.125,-227,-0.07958984,0.07177734,1.260742,-0.04101563,-0.09472656,-0.1704102
577,4.375,103.9375,-209.875,0.6083984,-0.2832031,1.043457,-0.04101563,-0.1049805,-0.1704102
578,10.0625,111.5,-202,0.7475586,-0.4726563,1.146484,-0.03808594,-0.112793,-0.1650391
579,55.8125,141.0625,-167.5,0.3378906,-0.5073242,1.043457,-0.03808594,-0.112793,-0.1650391
580,91.1875,167.5625,-124.1875,0.1308594,-0.2524414,0.9326172,-0.03808594,-0.112793,-0.1650391
581,99.5,148.875,-106.9375,0.2739258,-0.1865234,0.6206055,-0.02197266,-0.1484375,-0.1831055
582,75.75,104.25,-93.8125,0.4692383,-0.2060547,0.3398438,-0.02197266,-0.1484375,-0.1831055
583,41.75,46.8125,-70.0625,0.2583008,-0.159668,0.5810547,-0.02197266,-0.1484375,-0.1831055
584,27.0625,24.125,-53.0625,0.1108398,-0.1289063,0.7866211,-0.02197266,-0.1484375,-0.1831055
585,15.125,12.4375,-43.5625,-0.03564453,-0.1865234,0.9248047,-0.01171875,-0.1665039,-0.1962891
586,11,10.8125,-29.625,-0.03173828,-0.2524414,1.075195,-0.01171875,-0.1665039,-0.1962891
587,1.8125,6.1875,-11.5625,-0.04785156,-0.2949219,1.059082,-0.01171875,-0.1665039,-0.1962891
588,-0.125,6.5,4.1875,-0.03173828,-0.2988281,1.094727,-0.01953125,-0.1743164,-0.2070313
589,0,7.625,13.8125,-0.04394531,-0.2485352,1.071289,-0.01953125,-0.1743164,-0.2070313
590,-6.5625,23.25,16.75,-0.1113281,-0.3178711,1.166016,-0.01953125,-0.1743164,-0.2070313
591,-9,10.625,17.125,-0.00390625,-0.2753906,0.8852539,-0.01171875,-0.1586914,-0.1914063
592,-8.0625,6.8125,21.4375,0.07519531,-0.2949219,1.039551,-0.01171875,-0.1586914,-0.1914063
593,1.0625,6.9375,23.1875,0.03515625,-0.2675781,0.9526367,-0.01171875,-0.1586914,-0.1914063
594,13.6875,8.3125,28.375,-0.1113281,-0.3413086,0.9526367,-0.003417969,-0.1586914,-0.1962891
595,19.6875,-9.3125,36.375,-0.03173828,-0.2641602,1.059082,-0.003417969,-0.1586914,-0.1962891
596,21.9375,-16.9375,42.75,0.05908203,-0.2753906,1.189941,-0.003417969,-0.1586914,-0.1962891
597,18.1875,-15.9375,53.375,0.1308594,-0.3256836,1.264648,-0.003417969,-0.1586914,-0.1962891
598,10.6875,-13.625,79,0.09082031,-0.3876953,1.249023,-0.003417969,-0.15625,-0.2016602
599,9,-12.3125,88.25,0.05908203,-0.3564453,1.20166,-0.003417969,-0.15625,-0.2016602
600,-3.1875,-10.125,92.625,-0.1391602,-0.159668,1.3125,-0.003417969,-0.15625,-0.2016602
601,7.9375,18.875,43.25,0.09912109,-0.144043,1.209473,-0.006347656,-0.1616211,-0.1992188
602,-8.8125,-10.25,18.1875,-0.1352539,-0.04003906,1.375488,-0.003417969,-0.15625,-0.1962891
603,-0.5625,-14.0625,21.8125,0.3061523,-0.1054688,1.324219,-0.003417969,-0.15625,-0.1962891
604,-8.125,-24.9375,-0.3125,-0.1992188,-0.05517578,1.296387,0.001464844,-0.15625,-0.2045898
605,1.4375,-21.0625,-3.3125,-0.02783203,-0.1479492,1.3125,0.001464844,-0.15625,-0.2045898
606,2.75,-26.625,-14.375,-0.06347656,-0.1865234,1.284668,0.001464844,-0.1513672,-0.1860352
607,-2.3125,-28.5625,-6.25,0.1030273,-0.159668,1.328125,-0.006347656,-0.1484375,-0.1992188
608,-1.0625,-25.4375,-1.875,0.1943359,-0.2138672,1.339844,-0.006347656,-0.1484375,-0.1992188
609,-5.6875,-31.9375,-0.25,-0.05957031,-0.2641602,1.249023,-0.01416016,-0.1640625,-0.1938477
610,-1.4375,-44,18.125,-0.2509766,-0.2329102,1.256836,-0.01416016,-0.1640625,-0.1938477
611,-7.75,-56.375,29.5,-0.3105469,-0.05517578,1.316406,-0.008789063,-0.1616211,-0.1938477
612,-20.1875,-50.125,18.75,-0.2905273,0.1064453,1.189941,-0.01171875,-0.1538086,-0.1884766
613,-51.3125,-53.25,3.3125,-0.1948242,-0.05517578,1.162109,-0.01171875,-0.1538086,-0.1884766
614,-60.75,-55.4375,-1.8125,-0.1274414,-0.159668,1.308105,-0.01660156,-0.1538086,-0.1914063
615,-65.3125,-43.5625,-11.5625,0.1191406,-0.09375,1.284668,-0.03271484,-0.1459961,-0.1914063
616,-59.3125,-29.75,-17.6875,0.1547852,-0.01269531,1.446777,-0.03271484,-0.1459961,-0.1914063
617,-62.4375,-10.375,-38.5,0.1469727,-0.0009765625,1.288574,-0.03564453,-0.1435547,-0.1831055
618,-58.5625,3.4375,-44.0625,0.06298828,-0.08251953,1.308105,-0.03564453,-0.1435547,-0.1831055
619,-53.5,10.0625,-40.5,-0.03173828,-0.2524414,1.284668,-0.03564453,-0.1279297,-0.1831055
620,-43.3125,14.375,-17.875,0.1108398,-0.2446289,1.367676,-0.04638672,-0.1381836,-0.1782227
621,-34,27.6875,-12.9375,0.03955078,-0.09765625,1.249023,-0.04638672,-0.1381836,-0.1782227
622,-25.5625,26.875,-8.6875,0.015625,-0.07080078,1.316406,-0.03808594,-0.1254883,-0.1806641
623,-16.875,29.3125,-2.8125,0.07128906,-0.03222656,1.332031,-0.03808594,-0.1254883,-0.1806641
624,-6.6875,32.5625,1.3125,0.09912109,-0.05517578,1.391113,-0.04101563,-0.1206055,-0.175293
625,-0.9375,31.1875,6.625,0.1147461,-0.03613281,1.442871,-0.02734375,-0.1103516,-0.1831055
626,10.125,30.9375,8.8125,0.06298828,-0.03222656,1.29248,-0.02734375,-0.1103516,-0.1831055
627,10.1875,33.875,25.8125,-0.03173828,0.005859375,1.3125,-0.02734375,-0.1230469,-0.1806641
628,7.5,24.875,28.375,0.007324219,0.02929688,1.237305,-0.02197266,-0.1206055,-0.1860352
629,1.5,15.75,20.6875,0.05126953,0.09082031,1.29248,-0.02197266,-0.1206055,-0.1860352
630,-2.8125,13.5,13.6875,0.1469727,0.07958984,1.272949,-0.01171875,-0.1176758,-0.1831055
631,-8.9375,11.0625,5.75,0.1469727,0.07958984,1.189941,-0.01171875,-0.1176758,-0.1831055
632,-11.125,12.3125,-5.6875,0.2026367,0.1025391,1.122559,-0.01660156,-0.1254883,-0.1860352
634,-15,4.875,-14,0.01123047,0.05224609,1.027832,-0.02490234,-0.1254883,-0.1806641
635,-11.5,-3.8125,-11.0625,0.1904297,0.1762695,0.9682617,-0.02490234,-0.1254883,-0.1806641
636,-13.75,-1.5625,-30.1875,0.1625977,0.1103516,0.940918,-0.01953125,-0.112793,-0.1728516
637,-15.625,-8.6875,-29.6875,0.03955078,-0.04003906,0.9882813,-0.01953125,-0.112793,-0.1728516
638,-9.5,-10.125,-22.375,0.1547852,-0.1054688,1.023926,-0.03027344,-0.1152344,-0.1884766
639,4.0625,-5.0625,-12,0.09912109,-0.1054688,1,-0.01171875,-0.1152344,-0.1831055
640,5.4375,0.0625,-1.6875,0.1191406,-0.04003906,0.972168,-0.01171875,-0.1152344,-0.1831055
641,6.1875,4.4375,3.5,0.01123047,0.01757813,0.9804688,-0.01660156,-0.1206055,-0.175293
642,2.3125,3.4375,0.6875,0,0.05615234,0.9448242,-0.008789063,-0.1254883,-0.1806641
643,-2.9375,3.4375,0.1875,-0.02783203,0.1103516,0.9091797,-0.008789063,-0.1254883,-0.1806641
644,-0.375,4.125,-4.0625,0.1108398,0.03320313,0.8535156,-0.01953125,-0.1230469,-0.1782227
645,3.75,8.125,-9.0625,0.1147461,-0.06689453,0.8457031,-0.01953125,-0.1230469,-0.1782227
646,13.6875,11.5,2.5625,0.2182617,-0.109375,0.7666016,-0.01171875,-0.1333008,-0.1782227
647,22.9375,20.3125,-2.25,0.2900391,-0.1328125,0.8144531,-0.02734375,-0.1152344,-0.1806641
648,31,29.5,-4.125,0.2460938,-0.1943359,0.7905273,-0.02734375,-0.1152344,-0.1806641
649,55.25,47.9375,1.6875,0.3774414,-0.2177734,0.8183594,-0.008789063,-0.1206055,-0.1860352
650,72,56.6875,5.3125,0.2978516,-0.2485352,0.7392578,-0.008789063,-0.1206055,-0.1860352
651,91.4375,59.9375,17.625,0.1748047,-0.2871094,0.7866211,-0.008789063,-0.1411133,-0.1914063
652,97.75,52.5625,20.4375,0.04736328,-0.1713867,0.8696289,-0.006347656,-0.1381836,-0.1884766
653,100.5,49.375,16.4375,-0.03173828,-0.144043,0.8930664,-0.006347656,-0.1381836,-0.1884766
654,88.75,40.75,0.1875,-0.07958984,-0.2060547,0.9487305,0.01220703,-0.1586914,-0.1914063
655,73.4375,40.4375,-8.1875,-0.02001953,-0.2753906,0.8339844,0.01464844,-0.1640625,-0.1992188
656,85.5,32.875,3.5625,0.1191406,-0.04736328,0.9682617,0.01464844,-0.1640625,-0.1992188
657,79.75,18.9375,-15.625,0.1108398,-0.175293,0.9326172,0.006835938,-0.1640625,-0.2148438
658,78.875,18.375,-23.6875,0.1030273,-0.05126953,1.138184,0.006835938,-0.1640625,-0.2148438
659,63.5,16.8125,-28.8125,-0.5214844,-0.1674805,1.023926,0.00390625,-0.1845703,-0.2148438
660,56.25,27.375,-12.25,-0.4057617,-0.125,0.9287109,0.001464844,-0.1870117,-0.2177734
661,40.875,25.125,-22.1875,-0.246582,-0.159668,1,0.001464844,-0.1870117,-0.2177734
662,27.9375,32.9375,-32,-0.04003906,-0.1557617,1.003906,0.02294922,-0.1948242,-0.2202148
663,18.25,30.5,-23.1875,0.1904297,-0.175293,1.027832,0.02294922,-0.1948242,-0.2202148
664,9.9375,20.9375,-9.875,0.1865234,-0.1787109,1.083008,0.01757813,-0.1972656,-0.2177734
665,-3.125,12.875,-2,0.1030273,-0.05517578,1.197754,0.02783203,-0.2050781,-0.2255859
666,-16.5625,10.8125,-3,-0.1035156,-0.05517578,1.335938,0.02783203,-0.2050781,-0.2255859
667,-28.0625,10.375,-8.25,-0.1035156,-0.08984375,1.375488,0.01464844,-0.1918945,-0.2255859
668,-35.3125,8.375,-7.6875,0.01123047,-0.1826172,1.34375,0.01757813,-0.199707,-0.2202148
669,-34.25,10.4375,0.5625,-0.05957031,-0.2871094,1.320313,0.01757813,-0.199707,-0.2202148
670,-30.3125,16.125,9.5625,-0.09130859,-0.2485352,1.379395,0.03320313,-0.1918945,-0.2280273
671,-25.875,35.75,20,-0.1513672,-0.3027344,1.450684,0.03320313,-0.1918945,-0.2280273
672,-25.6875,37,25.0625,0.09082031,-0.2290039,1.229492,0.02539063,-0.1870117,-0.2177734
673,-21.875,26.0625,21.375,0.2783203,-0.2021484,1.217285,0.02539063,-0.1870117,-0.2202148
674,-21.1875,9.625,24.9375,-0.0078125,-0.175293,1.272949,0.02539063,-0.1870117,-0.2202148
675,-30.0625,3.25,24.125,-0.2148438,-0.07080078,1.347656,0.04150391,-0.1918945,-0.2148438
676,-37.75,-6.9375,17.3125,-0.175293,-0.02050781,1.418945,0.04150391,-0.1918945,-0.2148438
677,-44.875,-13.125,14.9375,-0.1274414,-0.04394531,1.501953,0.04150391,-0.1791992,-0.2202148
678,-50.6875,-7.6875,5.1875,-0.04394531,-0.03222656,1.39502,0.03076172,-0.1665039,-0.2148438
679,-53.4375,-5,5.6875,-0.03173828,0.02148438,1.422852,0.03076172,-0.1665039,-0.2148438
680,-54.6875,2.875,-1,0.003417969,0.04833984,1.430664,0.03320313,-0.1640625,-0.2124023
681,-49.25,5.3125,-12.375,-0.06347656,-0.01660156,1.39502,0.03613281,-0.1616211,-0.2045898
682,-34.9375,4.25,-15.375,-0.1630859,-0.1401367,1.494141,0.03613281,-0.1616211,-0.2045898
683,-15.875,2.375,-16.5,-0.2070313,-0.2177734,1.517578,0.03857422,-0.15625,-0.2148438
684,4.3125,-0.625,-15.625,-0.2744141,-0.2602539,1.56543,0.03857422,-0.15625,-0.2148438
685,15.75,-0.9375,-6.25,-0.4418945,-0.2138672,1.533691,0.03076172,-0.1538086,-0.2202148
686,21.5625,-1.6875,-0.3125,-0.4975586,-0.109375,1.446777,0.04150391,-0.1616211,-0.2124023
687,25.0625,-2.5625,10.0625,-0.4179688,0.001953125,1.3125,0.04150391,-0.1616211,-0.2124023
688,27.625,-23.3125,4.0625,-0.3500977,0.1411133,1.39502,0.03320313,-0.1616211,-0.2094727
689,28.375,-34.25,-9.375,-0.2626953,0.1450195,1.482422,0.03320313,-0.1616211,-0.2094727
690,29,-32.25,-14.75,-0.09960938,0.1450195,1.367676,0.01464844,-0.1640625,-0.1992188
691,24.4375,-35.3125,-23.5,-0.2827148,0.001953125,1.11084,0.02294922,-0.1743164,-0.2148438
692,16.375,-36.125,1,-0.2548828,-0.01660156,1.411133,0.02294922,-0.1743164,-0.2148438
693,18.25,-23.4375,-19.0625,0.0234375,0.05615234,1.185547,0.02294922,-0.1816406,-0.2177734
694,22.375,-17.9375,-24.125,-0.01171875,0.02148438,1.007813,0.01757813,-0.1791992,-0.2177734
695,20.5,-16.8125,-24.4375,-0.1552734,-0.02832031,1.063477,0.01757813,-0.1791992,-0.2177734
696,20.125,-16.9375,-24.9375,-0.246582,-0.03613281,0.9287109,0.01757813,-0.1816406,-0.2177734
697,20.9375,-19.9375,-31.6875,-0.2070313,-0.08984375,1.023926,0.01757813,-0.1816406,-0.2177734
699,24.75,-19.3125,-37,-0.09570313,-0.06689453,1.05127,0.01464844,-0.1689453,-0.2070313
700,31.75,-13.125,-36.75,-0.05566406,-0.1401367,1.023926,0.009277344,-0.1894531,-0.2177734
701,35.0625,-7.9375,-32.25,-0.01171875,-0.05126953,1.015625,0.009277344,-0.1894531,-0.2177734
702,36.0625,-8.375,-25,-0.3066406,-0.09375,0.9604492,0.001464844,-0.1870117,-0.2177734
703,29.4375,-14.375,-9.3125,-0.4057617,-0.02441406,0.8930664,0.001464844,-0.1870117,-0.2177734
704,21.1875,-21.6875,-1.1875,-0.1669922,-0.0009765625,0.8891602,0.00390625,-0.2021484,-0.2124023
705,18.9375,-22.25,-10.75,0,-0.008789063,0.9130859,0.006835938,-0.1918945,-0.2202148
706,26.875,-17.875,-14.625,0.08300781,-0.09375,0.8813477,0.006835938,-0.1918945,-0.2202148
707,36.0625,-12.25,-12.5625,0.08300781,-0.109375,0.9448242,-0.0009765625,-0.1918945,-0.2177734
708,45.25,-9.9375,-17.0625,0.05126953,0.001953125,0.9365234,-0.0009765625,-0.1948242,-0.2094727
709,45.125,-8.8125,-25.875,0.015625,-0.01269531,0.9248047,-0.0009765625,-0.1948242,-0.2094727
710,40.625,-10.1875,-33.375,0.09082031,0.02929688,0.8813477,-0.003417969,-0.2075195,-0.2124023
711,34.8125,-8.5,-42.8125,0.07128906,0.05615234,0.9169922,-0.003417969,-0.2075195,-0.2124023
712,27.125,-6.25,-60.75,0.2104492,-0.03222656,0.8852539,-0.01171875,-0.2226563,-0.2226563
713,35.25,-8.8125,-57.9375,-0.08349609,-0.1713867,0.9365234,-0.006347656,-0.2226563,-0.2124023
714,31.625,-11.75,-42.875,0.1230469,0.01367188,0.9326172,-0.006347656,-0.2226563,-0.2124023
715,31.25,-8.8125,-51.25,-0.06787109,-0.1210938,0.9091797,-0.01660156,-0.2250977,-0.2202148
716,30.1875,-17.125,-48.8125,-0.09570313,-0.1713867,1.071289,-0.01660156,-0.2250977,-0.2202148
717,27.75,-16.8125,-45.0625,0.015625,-0.1132813,1.067383,-0.01660156,-0.2280273,-0.2202148
718,37.6875,-21.375,-49,0.1787109,-0.1015625,1.059082,-0.01660156,-0.2353516,-0.2255859
719,36.0625,-12.0625,-52.6875,0.2460938,-0.08642578,1.039551,-0.01660156,-0.2353516,-0.2255859
720,35.9375,-13.125,-28.1875,0.1469727,-0.01660156,0.9052734,-0.02197266,-0.2329102,-0.2202148
721,26.3125,-15.8125,-30.375,-0.1313477,-0.1171875,1.031738,-0.02197266,-0.2353516,-0.2226563
722,22.6875,-20.625,-28.1875,-0.03173828,-0.07861328,1.023926,-0.02197266,-0.2353516,-0.2226563
723,22.4375,-21.125,-30.8125,0.07519531,-0.07470703,1.094727,-0.02490234,-0.253418,-0.2255859
724,24.8125,-21.6875,-17.75,-0.04785156,-0.05517578,1.079102,-0.02490234,-0.253418,-0.2255859
725,24.875,-24.5625,-18,-0.04785156,-0.05908203,1.098633,-0.03564453,-0.2456055,-0.2148438
726,26.75,-27.6875,-19.125,0.01953125,-0.1132813,1.146484,-0.03271484,-0.2612305,-0.2202148
727,30.875,-30.125,-12.9375,0.003417969,-0.109375,1.217285,-0.03271484,-0.2612305,-0.2202148
728,42.6875,-33.25,-12.875,0.03125,-0.144043,1.249023,-0.03564453,-0.2558594,-0.2255859
729,64.4375,-34,-14.0625,0.04736328,-0.2216797,1.241211,-0.03564453,-0.2558594,-0.2255859
730,72.5625,-36.625,-7.8125,0.09082031,-0.1210938,1.272949,-0.03564453,-0.2558594,-0.2255859
731,81.6875,-37,-5.625,0.05908203,-0.05517578,1.3125,-0.05175781,-0.2739258,-0.2202148
732,80.375,-39.25,0.0625,0.09082031,0.09863281,1.268555,-0.05175781,-0.2739258,-0.2202148
733,70.1875,-41.5625,-1.0625,0.05517578,0.1762695,1.300293,-0.05175781,-0.2739258,-0.2202148
734,58.8125,-45.1875,-8.25,0.05126953,0.1953125,1.383301,-0.05419922,-0.2866211,-0.2202148
735,52.4375,-46.5,-2.9375,0.07910156,0.2495117,1.324219,-0.05419922,-0.2866211,-0.2202148
736,49.3125,-46.9375,-8.75,0.1191406,0.3188477,1.29248,-0.05419922,-0.2866211,-0.2202148
737,46.8125,-44.875,-17.0625,0.1787109,0.2456055,1.3125,-0.05419922,-0.2866211,-0.2202148
738,51.5,-42.125,-22.4375,0.1230469,0.1762695,1.308105,-0.06738281,-0.3095703,-0.2148438
739,56.3125,-39.3125,-21.4375,0.1748047,0.1450195,1.245117,-0.06738281,-0.3095703,-0.2148438
740,62.6875,-36.5,-25.1875,0.1269531,0.1489258,1.272949,-0.06738281,-0.3095703,-0.2148438
741,61,-30.875,-36.75,0.07519531,0.08349609,1.225098,-0.08349609,-0.3125,-0.2094727
742,52.5625,-25.5625,-7.25,0.1108398,0.1762695,1.272949,-0.08349609,-0.3125,-0.2094727
743,49.8125,-18.6875,-11.75,0.06298828,0.237793,1.339844,-0.08349609,-0.3125,-0.2094727
744,42.8125,-14.8125,-8.625,0.015625,0.3076172,1.249023,-0.08886719,-0.3330078,-0.2177734
745,36.375,-11.1875,-6.0625,0.0234375,0.4194336,1.288574,-0.08886719,-0.3330078,-0.2177734
746,31.25,-8.4375,-4.5625,0.01953125,0.4311523,1.260742,-0.08886719,-0.3330078,-0.2177734
747,25.375,-5.8125,-4.0625,0.02734375,0.4736328,1.268555,-0.08642578,-0.3378906,-0.2094727
748,18.5625,-3.75,2.5625,-0.09570313,0.4619141,1.173828,-0.08642578,-0.3378906,-0.2094727
749,18.5,-6,-5,0.1386719,0.5351563,1.229492,-0.08642578,-0.3378906,-0.2094727
750,13.9375,-1.875,-7.9375,0.07519531,0.4233398,1.185547,-0.08642578,-0.3378906,-0.2094727
751,8.875,-0.1875,-5.75,0.1069336,0.4428711,1.166016,-0.08105469,-0.3481445,-0.2148438
752,9.9375,0.0625,-14.4375,0.1108398,0.3769531,1.138184,-0.08886719,-0.3505859,-0.2202148
753,15.0625,-0.0625,-13.0625,0.09082031,0.4814453,1.122559,-0.08886719,-0.3505859,-0.2202148
754,16.8125,-1.0625,-15.5625,0.08300781,0.4580078,1.039551,-0.09179688,-0.3530273,-0.2094727
755,17.8125,-3.0625,-17.9375,0.015625,0.3652344,1,-0.08886719,-0.3481445,-0.2148438
756,20.8125,-5.75,-2.9375,0.02734375,0.3964844,1.027832,-0.08886719,-0.3481445,-0.2148438
757,19.625,-5.125,4.1875,0.1230469,0.4926758,1.011719,-0.08886719,-0.3608398,-0.2148438
758,6.3125,-3.6875,3.6875,0.1665039,0.4887695,0.9448242,-0.08886719,-0.3608398,-0.2148438
759,-0.25,-1.25,4.4375,0.1625977,0.4775391,0.9882813,-0.08642578,-0.3583984,-0.2124023
760,-6.8125,-0.0625,6.75,0.1425781,0.4736328,0.9487305,-0.09667969,-0.3481445,-0.2124023
761,-20.9375,0.0625,3.5,0.2265625,0.4853516,0.9365234,-0.09667969,-0.3481445,-0.2124023
762,-41.75,1.5625,3.8125,0.08300781,0.3500977,0.9365234,-0.09179688,-0.3481445,-0.2070313
764,-50.1875,2.0625,7.0625,0.05126953,0.2148438,0.9960938,-0.09179688,-0.3481445,-0.2070313
765,-43.4375,3.375,9.6875,0.1030273,0.1606445,0.9960938,-0.09179688,-0.3583984,-0.2177734
766,-44.6875,6.375,16.125,0.1191406,0.1914063,1.011719,-0.08886719,-0.3457031,-0.2177734
767,-41.3125,7.375,16.625,0.1230469,0.1645508,1.035645,-0.08886719,-0.3457031,-0.2177734
768,-36.875,7.8125,16.25,0.1704102,0.1064453,1.023926,-0.08642578,-0.3432617,-0.2070313
769,-27.8125,8.4375,18.3125,0.1547852,0.09863281,1.031738,-0.09179688,-0.340332,-0.2202148
770,-21.875,8.8125,23.3125,0.1508789,0.1298828,1.043457,-0.09179688,-0.340332,-0.2202148
771,-23.625,8.875,23.8125,0.08300781,0.1064453,0.9960938,-0.08105469,-0.3300781,-0.2177734
772,-24.4375,8.8125,27.1875,0.09521484,0.07177734,0.9960938,-0.08105469,-0.3300781,-0.2177734
773,-25.5,8.0625,30.3125,0.09912109,0.06787109,0.9248047,-0.08886719,-0.3227539,-0.2045898
774,-30.0625,7.25,32.3125,0.1469727,0.1762695,0.8696289,-0.08105469,-0.3173828,-0.2070313
775,-37.75,5.125,30.8125,0.1147461,0.1142578,0.8774414,-0.08105469,-0.3173828,-0.2070313
776,-39.875,2.9375,28.0625,0.1191406,0.04443359,0.8579102,-0.08642578,-0.3149414,-0.2202148
777,-35.5625,1.5,26.625,0.1787109,0.02539063,0.8579102,-0.08642578,-0.3149414,-0.2202148
778,-31.9375,0,23.8125,0.1191406,0.02539063,0.9052734,-0.08105469,-0.3071289,-0.2124023
779,-31.375,-2.0625,20.5625,0.1191406,0.01367188,0.8974609,-0.078125,-0.3046875,-0.2094727
780,-35.25,-3.9375,17.5,0.08691406,0.009765625,0.8774414,-0.078125,-0.3046875,-0.2094727
781,-43.8125,-5.1875,14.5,0.06738281,-0.008789063,0.8579102,-0.08349609,-0.2890625,-0.2177734
782,-40.125,-7.125,4.8125,0.09912109,-0.09765625,0.9604492,-0.08105469,-0.296875,-0.2124023
783,-29.9375,-7.0625,1.75,0.1069336,-0.1479492,0.9882813,-0.08105469,-0.296875,-0.2124023
784,-16.9375,-7.25,-0.75,0.1269531,-0.1635742,1.106934,-0.08886719,-0.2919922,-0.2124023
785,-2.8125,-7.0625,-3.25,0.1069336,-0.1713867,1.177734,-0.08886719,-0.2919922,-0.2124023
786,11.125,-8.125,-7.9375,0.1547852,-0.1557617,1.217285,-0.09179688,-0.2944336,-0.2124023
787,19.875,-7.25,-9.25,0.1787109,-0.1635742,1.166016,-0.09423828,-0.2890625,-0.2148438
788,22.375,-6.25,-11.0625,0.1904297,-0.03613281,1.146484,-0.09423828,-0.2890625,-0.2148438
789,17.9375,-6,-15.75,0.1625977,0.005859375,1.158203,-0.06738281,-0.296875,-0.2045898
790,8.375,-4.5,-16.3125,0.06738281,0.01367188,1.094727,-0.06738281,-0.296875,-0.2045898
791,-1.375,-5.25,-16.3125,0.02734375,0.05615234,1.086914,-0.08642578,-0.2841797,-0.2124023
792,-10.25,-7.875,-16.5,-0.07958984,-0.04736328,1.177734,-0.08886719,-0.2944336,-0.2094727
793,-7.0625,-10.6875,-15.3125,-0.05957031,-0.09375,1.272949,-0.08886719,-0.2944336,-0.2094727
794,-8.3125,-10.1875,-6.5,-0.07958984,0.01367188,1.264648,-0.09179688,-0.2919922,-0.2045898
795,-23.25,-10.9375,2.5,-0.01171875,0.1762695,1.29248,-0.08642578,-0.3022461,-0.2202148
796,-35.875,-12.0625,-3.625,0.1665039,0.203125,1.229492,-0.08642578,-0.3022461,-0.2202148
797,-50.375,-11.125,5.6875,0.1069336,0.2612305,1.189941,-0.08886719,-0.2919922,-0.2045898
798,-63.875,-8.4375,5.25,0.09912109,0.1796875,1.280762,-0.08886719,-0.2919922,-0.2045898
799,-64.875,-6.125,3.1875,0.1625977,0.203125,1.351563,-0.09179688,-0.2944336,-0.2045898
800,-60.9375,-2.5,5.1875,0.1547852,0.168457,1.407227,-0.09423828,-0.2841797,-0.2070313
801,-47.875,2.6875,10.4375,0.05126953,0.09472656,1.557129,-0.09423828,-0.2841797,-0.2070313
802,-38.9375,5.3125,10.9375,0.1147461,0.21875,1.470215,-0.09667969,-0.2714844,-0.2202148
803,-18.375,7.875,4.1875,0.07519531,0.1025391,1.584961,-0.09667969,-0.2714844,-0.2202148
804,-10.5625,9.875,13.5,-0.05175781,0.203125,1.509766,-0.09960938,-0.2714844,-0.2094727
805,-1.75,10.4375,7.9375,-0.09130859,0.1645508,1.458496,-0.09667969,-0.269043,-0.1962891
806,11.5,12.625,5.5625,-0.1152344,0.1298828,1.462402,-0.09667969,-0.269043,-0.1962891
807,19.4375,10.25,7.3125,-0.1552734,0.137207,1.39502,-0.08105469,-0.269043,-0.2094727
808,26.5,11.25,6.3125,-0.175293,0.1723633,1.379395,-0.08886719,-0.2612305,-0.2148438
809,35.9375,6.8125,9.125,-0.09960938,0.2109375,1.391113,-0.08886719,-0.2612305,-0.2148438
810,36.5625,5.6875,7.8125,-0.175293,0.1992188,1.308105,-0.09179688,-0.2612305,-0.2094727
811,32.875,0.375,12.375,-0.09960938,0.2109375,1.256836,-0.09179688,-0.2612305,-0.2094727
812,24.75,0.75,4.25,-0.05175781,0.2919922,1.166016,-0.078125,-0.2661133,-0.2177734
813,6.4375,-3.8125,2.4375,-0.1669922,0.1723633,1.383301,-0.07568359,-0.2792969,-0.2070313
814,-17.0625,-3.8125,-2.125,-0.02783203,0.2763672,1.138184,-0.07568359,-0.2792969,-0.2070313
815,-28.1875,-0.5625,-9.625,0.007324219,0.2495117,1.079102,-0.08886719,-0.2792969,-0.2226563
816,-55.75,-1.625,-12.5,0.02734375,0.1953125,1.003906,-0.08886719,-0.2792969,-0.2226563
817,-67.25,-0.0625,-20.5,0.05126953,0.06396484,1.059082,-0.08105469,-0.2661133,-0.2070313
818,-63.5,-0.125,-33.4375,0.04736328,0.005859375,1.05127,-0.09667969,-0.2612305,-0.2177734
819,-73.75,-0.9375,-36.25,0.0234375,-0.004882813,1.11084,-0.09667969,-0.2612305,-0.2177734
820,-74.5,0.625,-44.875,0.02734375,-0.04736328,1.138184,-0.08642578,-0.253418,-0.2094727
821,-51.125,2.5,-46.75,-0.09130859,-0.1982422,1.071289,-0.08105469,-0.2587891,-0.2094727
822,-48.9375,2.375,-56.1875,-0.08740234,-0.2138672,1.197754,-0.08105469,-0.2587891,-0.2094727
823,-21.0625,0.3125,-49.0625,-0.4057617,-0.7006836,1.537598,-0.08642578,-0.2509766,-0.2045898
824,313.3125,-20.3125,49.6875,-2.324219,-2.725098,3.245117,-0.08642578,-0.2509766,-0.2045898
825,197.6875,-24.9375,62.6875,1.022461,0.4272461,0.7587891,-0.09423828,-0.2587891,-0.2094727
826,335.9375,-19.75,-35.3125,0.3696289,-0.5341797,1.462402,-0.08886719,-0.2841797,-0.2177734
827,229.6875,-4.3125,3.9375,0.3061523,0.3461914,0.1108398,-0.08886719,-0.2841797,-0.2177734
829,212.8125,-17.375,-34.625,0.08691406,0.496582,0.6523438,-0.08886719,-0.3173828,-0.2124023
830,359.1875,-31.25,-24.625,-0.6567383,-0.9052734,1.229492,-0.08886719,-0.3173828,-0.2124023
831,281.75,-27.3125,38.0625,-0.203125,0.04101563,0.6484375,-0.09667969,-0.3481445,-0.2177734
832,269.625,-36.75,24.25,0.5131836,0.8095703,0.7075195,-0.09960938,-0.3837891,-0.2094727
833,216.75,-35.625,-12.5,0.425293,0.7441406,0.5258789,-0.09960938,-0.3837891,-0.2094727
834,164.5625,-33.1875,-19.4375,0.3857422,0.7167969,0.3676758,-0.1049805,-0.4072266,-0.2226563
835,107.625,-29.5,-21.3125,0.262207,0.6474609,0.371582,-0.1074219,-0.4248047,-0.2016602
836,62.0625,-30.875,-17.8125,0.2583008,0.612793,0.3242188,-0.1074219,-0.4248047,-0.2016602
837,21.25,-37.75,-19.25,0.2182617,0.4619141,0.4902344,-0.1074219,-0.4301758,-0.1914063
838,-21.25,-40.8125,-29.8125,0.2861328,0.2724609,0.7666016,-0.1074219,-0.4301758,-0.1914063
839,-35.6875,-44.5,-41.125,0.2739258,-0.01269531,1.075195,-0.112793,-0.4350586,-0.1962891
840,-24.5,-45.875,-43.0625,0.1386719,-0.2368164,1.316406,-0.1020508,-0.4350586,-0.1914063
841,11.125,-46.25,-42.25,0.09912109,-0.3720703,1.375488,-0.1020508,-0.4350586,-0.1914063
842,43.4375,-47.3125,-32.8125,0.07128906,-0.2675781,1.324219,-0.1235352,-0.4404297,-0.1914063
843,69.625,-49,-25.75,0.1308594,-0.07861328,1.150391,-0.1235352,-0.4404297,-0.1914063
844,76.875,-45.3125,-16.625,0.1826172,0.1259766,0.9013672,-0.1235352,-0.4350586,-0.1831055
845,58.375,-46.1875,-13.5,0.222168,0.3964844,0.8974609,-0.1318359,-0.4506836,-0.1860352
846,31.6875,-44.1875,-17.0625,0.2900391,0.4541016,0.9448242,-0.1318359,-0.4506836,-0.1860352
847,17.8125,-45.5,-23.875,0.3061523,0.3422852,0.9526367,-0.1420898,-0.4609375,-0.1782227
848,8.125,-41.25,-22.9375,0.2460938,0.1762695,1.043457,-0.1396484,-0.4609375,-0.1674805
849,2.375,-41.1875,-7,0.262207,0.3652344,0.9604492,-0.1396484,-0.4609375,-0.1674805
850,-4.125,-32.5625,13.5625,0.04736328,0.3691406,1.225098,-0.1450195,-0.4658203,-0.1728516
851,-29,-31.5,38.3125,0.1269531,0.890625,1,-0.1450195,-0.4658203,-0.1728516
852,-45.5625,-26.5625,71.0625,0.1748047,1.103516,0.8496094,-0.1396484,-0.4506836,-0.175293
853,-92,-31,56.625,0.425293,0.9682617,0.972168,-0.1503906,-0.4506836,-0.1806641
854,-115.375,-32.625,51.3125,0.4414063,0.5317383,1.019531,-0.1503906,-0.4506836,-0.1806641
855,-120.5625,-29.4375,52.8125,0.4174805,0.3847656,1.067383,-0.1557617,-0.4301758,-0.1782227
856,-113,-25.75,49.3125,0.3017578,0.3149414,1.11084,-0.1557617,-0.4301758,-0.1782227
857,-95,-18.75,54.5,0.2265625,0.3999023,1.158203,-0.1665039,-0.4248047,-0.1782227
858,-80.125,-12.5625,73,0.1865234,0.4775391,1.213379,-0.1635742,-0.4018555,-0.1806641
859,-76.625,-0.8125,109.875,0.0234375,0.5585938,1.25293,-0.1635742,-0.4018555,-0.1806641
860,-72.5625,-0.4375,115.5,0.465332,0.6782227,1.422852,-0.171875,-0.3916016,-0.1806641
861,-83.5,8.0625,81.0625,0.7358398,0.6665039,1.316406,-0.1743164,-0.3789063,-0.1782227
862,-94.8125,13.9375,53.125,0.6401367,0.4814453,1.300293,-0.1743164,-0.3789063,-0.1782227
863,-91.375,19.8125,40.25,0.4013672,0.4462891,1.245117,-0.1665039,-0.3662109,-0.175293
864,-87.9375,23.1875,46.4375,0.1665039,0.4853516,1.205566,-0.1665039,-0.3662109,-0.175293
865,-78.6875,24.125,66.375,-0.02392578,0.5893555,1.225098,-0.1689453,-0.355957,-0.1782227
866,-74.125,25.5,102.3125,-0.1669922,0.6088867,1.177734,-0.152832,-0.3432617,-0.1806641
867,-83.75,23.8125,120.0625,-0.01611328,0.5854492,1.122559,-0.152832,-0.3432617,-0.1806641
868,-73.625,26.25,114.875,0.1665039,0.496582,1.083008,-0.1611328,-0.3330078,-0.1728516
869,-65.875,26.875,109.5,0.234375,0.3344727,1.126465,-0.1611328,-0.3330078,-0.1728516
870,-127.0625,41.75,82.4375,0.9150391,0.7788086,0.5493164,-0.1557617,-0.3071289,-0.1860352
871,-65.9375,29.1875,66.375,0.3457031,0.1489258,1.193848,-0.152832,-0.3071289,-0.1806641
872,-63.625,34.625,54.4375,0.1865234,0.2802734,0.9804688,-0.152832,-0.3071289,-0.1806641
873,-42.125,30.1875,50.375,0.03515625,0.1992188,1.154297,-0.1420898,-0.2841797,-0.1914063
874,-21.0625,27.625,64.125,0.09082031,0.3769531,1.173828,-0.1420898,-0.2763672,-0.2016602
875,-14.625,24.1875,64.375,0.1625977,0.3886719,1.169922,-0.1420898,-0.2763672,-0.2016602
876,-11.25,20.375,47.5625,0.3061523,0.4462891,1.256836,-0.137207,-0.2636719,-0.1884766
877,-10,22.75,23.5,0.4013672,0.3110352,1.300293,-0.137207,-0.2636719,-0.1884766
878,-0.375,33.5,16.0625,0.409668,0.2919922,1.130371,-0.1474609,-0.2714844,-0.1938477
879,2.375,26.3125,-2.9375,0.3378906,0.1835938,1.181641,-0.1474609,-0.2714844,-0.1938477
880,15.3125,28.6875,-4.9375,0.2182617,0.1645508,1.09082,-0.1474609,-0.2714844,-0.1938477
881,21.0625,28.875,-6.5,0.2143555,0.1953125,1.075195,-0.1318359,-0.269043,-0.1860352
882,19,30.75,-15.375,0.2265625,0.21875,1.031738,-0.1318359,-0.269043,-0.1860352
883,13.6875,35.5625,-25.75,0.2182617,0.1411133,0.9882813,-0.1318359,-0.269043,-0.1860352
884,8.125,40.625,-28.5625,0.1826172,0.04833984,1.039551,-0.1264648,-0.2792969,-0.1962891
885,6.0625,44.3125,-30.875,0.1704102,0.08740234,0.984375,-0.1264648,-0.2792969,-0.1962891
886,0.625,45.4375,-41.375,0.1469727,0.02148438,0.9882813,-0.1264648,-0.2792969,-0.1962891
887,-12.625,46.4375,-68.0625,0.2104492,-0.07861328,0.8852539,-0.1157227,-0.2792969,-0.2016602
888,-20.625,45.1875,-79.25,0.1425781,-0.05908203,0.9760742,-0.1157227,-0.2792969,-0.2016602
889,-25.5,48.0625,-67.8125,-0.1035156,-0.3413086,0.9365234,-0.1157227,-0.2792969,-0.2016602
890,-33.3125,44.5,-36.5625,0.03955078,-0.09375,1.015625,-0.1157227,-0.2792969,-0.2016602
891,-19.875,36.6875,-8.5625,0.1386719,0.09472656,1.015625,-0.112793,-0.2890625,-0.2070313
892,-29.25,31.875,0.625,0.1347656,0.09082031,1.039551,-0.112793,-0.2890625,-0.2070313
894,-12.625,21.25,6.25,0.1508789,0.04833984,1.20166,-0.112793,-0.2890625,-0.2070313
895,-2.875,14.6875,4.9375,0.1904297,-0.06298828,1.122559,-0.09423828,-0.2739258,-0.2124023
896,9.125,8.5625,-0.5,0.1904297,-0.1479492,1.138184,-0.09423828,-0.2739258,-0.2124023
897,22.4375,2.1875,-11.8125,0.1191406,-0.2792969,1.146484,-0.09423828,-0.2739258,-0.2124023
898,40.1875,-3.625,-15.5625,0.1469727,-0.2641602,1.126465,-0.09667969,-0.2817383,-0.2226563
899,58.9375,-9.6875,-15.875,0.1308594,-0.159668,1.035645,-0.09667969,-0.2817383,-0.2226563
900,62.625,-13.3125,-17.3125,0.1508789,0.02929688,0.9921875,-0.09667969,-0.2817383,-0.2226563
901,55.25,-13.6875,-21.125,0.1787109,0.1333008,0.984375,-0.09423828,-0.2993164,-0.2070313
902,43.0625,-15.125,-21.25,0.1748047,0.222168,1.019531,-0.09423828,-0.2993164,-0.2070313
903,37.6875,-19.75,-18.8125,0.05517578,0.05615234,1.126465,-0.1049805,-0.3046875,-0.2094727
904,56.375,-19.5,-7.6875,0.1865234,0.2416992,0.9604492,-0.1049805,-0.3046875,-0.2094727
905,18.5625,-21.3125,-13.5625,0.2460938,0.1220703,1.122559,-0.09960938,-0.3095703,-0.2148438
906,27.5,-25.375,-20.6875,0.2026367,0.1645508,1.162109,-0.1074219,-0.3022461,-0.2124023
907,36.6875,-29.4375,-20.6875,0.1748047,0.09472656,1.20166,-0.1074219,-0.3022461,-0.2124023
908,49,-33.0625,-15.9375,0.1230469,0.07177734,1.209473,-0.1103516,-0.3071289,-0.2016602
909,56.4375,-33.5625,-6.6875,0.1347656,0.1606445,1.169922,-0.1157227,-0.3330078,-0.2094727
910,62.125,-35.5625,-1.625,0.1230469,0.2260742,1.217285,-0.1157227,-0.3330078,-0.2094727
911,64.1875,-35.0625,2.1875,0.1987305,0.2841797,1.154297,-0.112793,-0.3227539,-0.2070313
912,62.0625,-33.5625,2.875,0.2143555,0.3500977,1.217285,-0.112793,-0.3227539,-0.2070313
913,60.5,-32.375,2.125,0.2026367,0.3540039,1.197754,-0.1235352,-0.3330078,-0.1962891
914,58.0625,-31.3125,-0.375,0.2304688,0.3422852,1.229492,-0.1210938,-0.3354492,-0.2124023
915,59.1875,-30.4375,-6,0.1347656,0.237793,1.225098,-0.1210938,-0.3354492,-0.2124023
916,57.375,-26.5625,2.5,0.03125,0.1723633,1.126465,-0.1318359,-0.3481445,-0.2070313
917,56.5625,-26.75,26.8125,-0.02392578,0.2802734,1.130371,-0.1318359,-0.3481445,-0.2070313
918,46.25,-24.375,28.9375,0.07910156,0.3730469,1.146484,-0.1342773,-0.3505859,-0.1914063
919,27.3125,-20.125,16.0625,0.4414063,0.5546875,1.09082,-0.1396484,-0.3481445,-0.1860352
920,0.9375,-8.9375,13.3125,0.4135742,0.512207,1.075195,-0.1396484,-0.3481445,-0.1860352
921,-23.625,-0.6875,4.125,0.3535156,0.5893555,1.086914,-0.1396484,-0.3505859,-0.2045898
922,-45.1875,8.375,0.1875,0.2421875,0.5585938,1.075195,-0.1318359,-0.3505859,-0.1938477
923,-63.625,16.0625,-1.5,0.2182617,0.5585938,1.079102,-0.1318359,-0.3505859,-0.1938477
924,-76.125,21.5625,-5.3125,0.1665039,0.496582,1.185547,-0.1342773,-0.3481445,-0.1962891
925,-79.9375,25.4375,-8.4375,0.1469727,0.3188477,1.237305,-0.1342773,-0.3481445,-0.1962891
926,-74,27.3125,-10.875,0.08300781,0.2299805,1.3125,-0.1210938,-0.3457031,-0.1938477
927,-63.5625,27.9375,-13.875,0.0234375,0.1489258,1.328125,-0.1318359,-0.3300781,-0.1992188
928,-53.0625,26.5625,-14.1875,-0.05957031,0.1259766,1.316406,-0.1318359,-0.3300781,-0.1992188
929,-40.6875,24.25,-16.5,-0.07177734,0.1103516,1.3125,-0.1264648,-0.3149414,-0.2016602
930,-26.75,21,-18.8125,-0.09570313,0.08740234,1.320313,-0.1264648,-0.3149414,-0.2016602
931,-14.1875,17.0625,-18.125,-0.07177734,0.1142578,1.308105,-0.1289063,-0.3198242,-0.1938477
932,-6.875,13.75,-16.0625,-0.1513672,0.1723633,1.284668,-0.1157227,-0.3149414,-0.2148438
933,-4.3125,9.75,-16.3125,-0.1152344,0.2495117,1.229492,-0.1157227,-0.3149414,-0.2148438
934,-5.4375,8.125,-17.5625,-0.07958984,0.2109375,1.249023,-0.1289063,-0.3276367,-0.1962891
935,-7.375,7.0625,-18.0625,-0.00390625,0.2456055,1.185547,-0.1181641,-0.3227539,-0.2070313
936,-6.375,4.4375,-13.625,-0.2827148,0.137207,1.154297,-0.1181641,-0.3227539,-0.2070313
937,-5.8125,0.625,-5.875,-0.2827148,0.1220703,1.146484,-0.1210938,-0.3198242,-0.2070313
938,-10.5,-1.5625,-4.0625,-0.02392578,0.2651367,1.079102,-0.1210938,-0.3198242,-0.2070313
939,-22.9375,2.3125,-20.5,0.2822266,0.3110352,1.063477,-0.1210938,-0.3173828,-0.2016602
940,-32.875,6.6875,-37.625,0.2104492,0.1220703,1.086914,-0.1210938,-0.3173828,-0.2070313
941,-30,7.4375,-44.75,-0.01171875,0.02539063,1.118652,-0.1210938,-0.3173828,-0.2070313
942,-21.8125,5.875,-48.1875,-0.1074219,-0.004882813,1.098633,-0.1264648,-0.3330078,-0.2045898
943,-11.875,3,-47.875,-0.08740234,0.009765625,1.094727,-0.1264648,-0.3330078,-0.2045898
944,-5.25,1.8125,-51.5625,0,0.02929688,1.122559,-0.1157227,-0.3149414,-0.2124023
945,-4.6875,1.25,-63.625,0.1147461,0.06787109,1.075195,-0.1181641,-0.3300781,-0.2148438
946,15.25,-0.8125,-54.9375,-0.175293,-0.1171875,1.086914,-0.1181641,-0.3300781,-0.2148438
947,6.125,4.25,-43.3125,0.01123047,0.1992188,0.7114258,-0.1264648,-0.3125,-0.2070313
948,-20.8125,4.4375,-59.5,0.2104492,0.2338867,0.8061523,-0.1103516,-0.3251953,-0.2124023
949,-37.1875,9.5,-54.75,0.003417969,0.1181641,0.7827148,-0.1103516,-0.3251953,-0.2124023
950,-47.25,10.375,-51.9375,-0.07177734,0.06396484,0.8300781,-0.1210938,-0.3300781,-0.2045898
951,-47.875,9.4375,-57.5625,0.0234375,0.09082031,0.8457031,-0.1210938,-0.3300781,-0.2045898
952,-39,6.5,-55.875,0.05517578,0.005859375,0.9169922,-0.112793,-0.3378906,-0.1962891
953,-36.1875,4.5,-61.4375,0.09912109,-0.06298828,1,-0.09960938,-0.3125,-0.2070313
954,-26.75,2.5625,-62.5625,0.1987305,0.02539063,1.209473,-0.09960938,-0.3125,-0.2070313
955,-22.25,2.3125,-67.0625,0.2265625,0.009765625,1.039551,-0.1157227,-0.3251953,-0.1962891
956,-12.6875,0.75,-69.4375,0.2104492,-0.004882813,1.011719,-0.1157227,-0.3251953,-0.1962891
957,-1.4375,-1.1875,-70.9375,0.1904297,-0.05517578,0.9960938,-0.112793,-0.3276367,-0.2124023
959,8.75,-3.6875,-72.9375,0.2104492,-0.07080078,1.059082,-0.1103516,-0.3227539,-0.2045898
960,21.625,-5.5625,-73.4375,0.2382813,-0.04736328,1.027832,-0.1103516,-0.3227539,-0.2045898
961,30.125,-7.9375,-79,0.2939453,-0.01660156,1.063477,-0.112793,-0.3227539,-0.2124023
962,39.6875,-9.25,-83.3125,0.3100586,-0.03613281,1.083008,-0.1264648,-0.3378906,-0.2124023
963,42.125,-9.1875,-81.6875,0.2421875,0.001953125,1.098633,-0.1264648,-0.3378906,-0.2124023
964,41.625,-8.6875,-80.375,0.2143555,0.08349609,1.063477,-0.1235352,-0.355957,-0.2124023
965,35.0625,-8.875,-83.1875,0.2583008,0.1567383,1.079102,-0.1235352,-0.355957,-0.2124023
966,18.1875,-7.875,-83.25,0.3579102,0.2495117,1.043457,-0.1181641,-0.3632813,-0.2045898
967,6.6875,-6.3125,-81.25,0.3100586,0.1835938,1.079102,-0.1181641,-0.355957,-0.2148438
968,-9.125,-5.5,-76.25,0.2382813,0.1875,1.138184,-0.1181641,-0.355957,-0.2148438
969,-18.0625,-5,-68.5,0.1904297,0.1875,1.205566,-0.1181641,-0.3662109,-0.2045898
970,-24.0625,-7.0625,-56,0.1508789,0.2299805,1.185547,-0.1181641,-0.3662109,-0.2045898
971,-31.1875,-7.6875,-35.9375,0.0234375,0.2338867,1.256836,-0.1235352,-0.3813477,-0.1962891
972,-44.6875,-10.5,-9.875,-0.03564453,0.4116211,1.146484,-0.1289063,-0.3735352,-0.1962891
973,-60,-15.75,-6.3125,0.1508789,0.5043945,1.059082,-0.1289063,-0.3735352,-0.1962891
974,-76,-17.6875,-6.5625,0.2265625,0.3999023,1.071289,-0.1181641,-0.3632813,-0.1992188
975,-77.3125,-18,2.375,0.1586914,0.2651367,1.118652,-0.1318359,-0.355957,-0.2016602
976,-70.625,-17.75,13.125,0.1108398,0.237793,1.154297,-0.1318359,-0.355957,-0.2016602
977,-62.625,-15.75,23.875,0.1108398,0.2651367,1.237305,-0.1235352,-0.355957,-0.2148438
978,-54.8125,-11.125,34.75,0.1704102,0.2880859,1.272949,-0.1235352,-0.355957,-0.2148438
979,-52.4375,-4.3125,40.5,0.2460938,0.2651367,1.367676,-0.1210938,-0.3505859,-0.1938477
980,-44.375,2.125,44.5,0.2661133,0.2338867,1.470215,-0.1181641,-0.3300781,-0.2148438
981,-31.5625,6.6875,45.25,0.2460938,0.2070313,1.553223,-0.1181641,-0.3300781,-0.2148438
982,-21.8125,12.6875,40.875,0.3417969,0.2612305,1.60498,-0.1289063,-0.3276367,-0.1992188
983,-9.9375,15.75,37.0625,0.2304688,0.3574219,1.644043,-0.1289063,-0.3276367,-0.1992188
984,-12,16.75,33.125,0.08691406,0.4155273,1.505859,-0.1289063,-0.3251953,-0.2045898
985,-4.25,12.5,34.4375,0.0234375,0.3808594,1.509766,-0.1235352,-0.3173828,-0.2016602
986,1.0625,8.5625,31.625,-0.00390625,0.4233398,1.407227,-0.1235352,-0.3173828,-0.2016602
987,11.875,4.0625,28.875,0.04736328,0.3540039,1.324219,-0.1264648,-0.3125,-0.2124023
988,28.25,1.25,26.625,0.07910156,0.3149414,1.169922,-0.1289063,-0.3125,-0.2045898
989,25.0625,0.9375,35.125,0.1469727,0.4350586,1.229492,-0.1289063,-0.3125,-0.2045898
990,22.6875,1.25,37.375,0.07519531,0.5390625,1.189941,-0.1181641,-0.3276367,-0.2045898
991,11.1875,1.625,35.75,0.1586914,0.5893555,1.09082,-0.1181641,-0.3276367,-0.2045898
992,0.0625,3.0625,26.1875,0.262207,0.5585938,1.146484,-0.1264648,-0.3173828,-0.1938477
993,-9.0625,7.1875,24.9375,0.2739258,0.4389648,1.138184,-0.1181641,-0.3227539,-0.2016602
994,-9.0625,10,23.25,0.2739258,0.3691406,1.181641,-0.1181641,-0.3227539,-0.2016602
995,-5.5625,11.875,20.75,0.2739258,0.3383789,1.20166,-0.112793,-0.3173828,-0.2094727
996,-6.1875,14.375,20.0625,0.3378906,0.3110352,1.158203,-0.112793,-0.3173828,-0.2094727
997,-9.25,16.75,18.8125,0.3217773,0.3769531,1.126465,-0.1181641,-0.3173828,-0.2177734
998,-16.5,19.8125,18.1875,0.3496094,0.3999023,1.055176,-0.1049805,-0.3022461,-0.2070313
999,-26.4375,24,9.875,0.4013672,0.4233398,0.984375,-0.1049805,-0.3022461,-0.2070313
1000,-27.4375,26.6875,4.875,0.3339844,0.3037109,0.9960938,-0.112793,-0.3125,-0.2177734
1001,-21.75,29.25,2.8125,0.2822266,0.2495117,0.9130859,-0.1103516,-0.3046875,-0.2094727
1002,-12.0625,29.5625,1.25,0.2661133,0.1875,0.9760742,-0.1103516,-0.3046875,-0.2094727
1003,-0.375,30.9375,-1.5625,0.2543945,0.1762695,0.9682617,-0.112793,-0.3046875,-0.2177734
1004,9.0625,32.1875,-9.4375,0.2661133,0.2299805,0.9643555,-0.112793,-0.3046875,-0.2177734
1005,14.9375,32.6875,-16.0625,0.2026367,0.1489258,0.9526367,-0.1020508,-0.3071289,-0.1962891
1006,18.6875,32.3125,-13,0.09082031,0.1181641,0.8222656,-0.112793,-0.3095703,-0.2094727
1007,25.9375,30.6875,4.3125,-0.01611328,0.06787109,0.7983398,-0.112793,-0.3095703,-0.2094727
1008,21.6875,23.75,3.0625,-0.04003906,-0.02050781,0.7905273,-0.09423828,-0.3071289,-0.2148438
1009,23.5,20.6875,10.75,-0.05957031,-0.02050781,0.7709961,-0.09423828,-0.3071289,-0.2148438
1010,21.375,18.375,11,-0.02001953,-0.01660156,0.7749023,-0.09179688,-0.3125,-0.2148438
1011,20.75,18.0625,15.375,0.05517578,0.1064453,0.7392578,-0.09423828,-0.3149414,-0.2202148
1012,14.75,16.1875,9.875,0,0.03320313,0.7470703,-0.09423828,-0.3149414,-0.2202148
1013,13.5,14.1875,9.6875,-0.03564453,-0.04736328,0.7827148,-0.09667969,-0.3173828,-0.2124023
1014,18.9375,14.875,11.6875,-0.03564453,-0.1865234,0.7788086,-0.08886719,-0.3276367,-0.2148438
1015,24.875,16.6875,13.75,-0.04003906,-0.2832031,0.8696289,-0.08886719,-0.3276367,-0.2148438
1016,32.3125,21.8125,13.4375,-0.01611328,-0.1826172,0.8852539,-0.08642578,-0.3173828,-0.2202148
1017,28.8125,25.1875,27.125,-0.08740234,-0.09375,0.8183594,-0.08642578,-0.3173828,-0.2202148
1018,26.4375,25.0625,18.375,-0.03173828,0.001953125,0.8339844,-0.07568359,-0.3125,-0.2202148
1019,23.9375,24.4375,15.25,-0.05175781,0.01367188,0.8222656,-0.08642578,-0.3149414,-0.2255859
1020,20.4375,22.3125,13.625,0.015625,0.04443359,0.8417969,-0.08642578,-0.3149414,-0.2255859
1021,15.375,19.375,10,0.09521484,0.1064453,0.9052734,-0.078125,-0.3227539,-0.2177734
1022,10.625,16.6875,8.0625,0.04345703,0.07177734,0.9169922,-0.078125,-0.3227539,-0.2177734
1024,5.5,12.9375,5.125,0.03955078,0.06396484,0.9287109,-0.06738281,-0.3198242,-0.230957
1025,-1.125,10.25,2.875,0.05126953,0.07177734,0.9326172,-0.078125,-0.3227539,-0.2177734
1026,-6.1875,7.1875,0,0.07910156,-0.0009765625,0.9487305,-0.078125,-0.3227539,-0.2177734
1027,-10.5,4.5,-0.75,0.06738281,-0.02441406,1.019531,-0.06201172,-0.3300781,-0.2280273
1028,-12.5625,3.5625,-1.5,0.1030273,-0.05517578,1.023926,-0.078125,-0.3227539,-0.2280273
1029,-12.125,3.5,-4.125,0.222168,-0.01660156,1.158203,-0.078125,-0.3227539,-0.2280273
1030,-13.0625,4.6875,-6.75,0.2382813,0.001953125,1.217285,-0.078125,-0.3227539,-0.2280273
1031,-15,6.5,-9.125,0.2421875,0.05615234,1.249023,-0.078125,-0.3227539,-0.2280273
1032,-17.375,9,-10.5625,0.2143555,0.04443359,1.3125,-0.06738281,-0.3149414,-0.230957
1033,-20.125,11.5,-9.625,0.1191406,0.04443359,1.288574,-0.06738281,-0.3149414,-0.230957
1034,-26.9375,15.875,-10.125,0.1826172,0.1298828,1.347656,-0.06738281,-0.3149414,-0.230957
1035,-35.625,17.875,-11.1875,0.234375,0.1411133,1.272949,-0.06494141,-0.3173828,-0.2226563
1036,-43.125,19.125,-12.6875,0.1987305,0.1220703,1.264648,-0.06494141,-0.3173828,-0.2226563
1037,-48.25,20.6875,-14.3125,0.1230469,0.137207,1.25293,-0.06494141,-0.3173828,-0.2226563
1038,-46.9375,21.0625,-16.5625,0.09912109,0.1103516,1.308105,-0.07275391,-0.3071289,-0.2255859
1039,-48.125,24.125,-17.375,0.06738281,0.1992188,1.229492,-0.07275391,-0.3071289,-0.2255859
1040,-36.75,26.4375,-17.9375,-0.02392578,0.1142578,1.304199,-0.07275391,-0.3071289,-0.2255859
1041,-33.1875,26.25,-1.0625,0.01953125,0.152832,1.375488,-0.05419922,-0.3022461,-0.2333984
1042,-26.6875,30.8125,-7.6875,0.1469727,0.3305664,1.474121,-0.05419922,-0.3022461,-0.2333984
1043,-16,33.3125,-11.8125,0.1147461,0.2724609,1.498047,-0.05419922,-0.3022461,-0.2333984
1044,-7,35.75,-11,0.1469727,0.3383789,1.501953,-0.05419922,-0.3022461,-0.2333984
1045,-9.5,37.5,-13.25,0.05908203,0.2958984,1.399414,-0.05175781,-0.2993164,-0.2358398
1046,-7.5625,38.4375,-13.5,0.1147461,0.4462891,1.462402,-0.05175781,-0.2993164,-0.2358398
1047,-15.5,38.75,-12.9375,0.234375,0.4697266,1.418945,-0.05175781,-0.2993164,-0.2358398
1048,-18.6875,37.625,-17.125,0.1904297,0.3964844,1.308105,-0.04345703,-0.2919922,-0.2333984
1049,-18.75,42.25,-25.5,0.1469727,0.496582,1.3125,-0.04345703,-0.2919922,-0.2333984
1050,-32.5,51.75,-39.6875,0.1943359,0.6591797,1.407227,-0.04345703,-0.2919922,-0.2333984
1051,-10.5,53.4375,7.1875,-0.4018555,0.4541016,0.972168,-0.03564453,-0.2890625,-0.2412109
1052,-8.8125,13.375,0.625,-0.1992188,0.2685547,1.411133,-0.03564453,-0.2890625,-0.2412109
1053,1.3125,13,-16.875,-0.246582,0.08740234,1.505859,-0.03027344,-0.2919922,-0.2387695
1054,23.4375,16.5625,22.125,-0.06347656,0.3925781,1.482422,-0.02734375,-0.2890625,-0.2387695
1055,26.1875,13.75,35.4375,-0.1196289,0.4350586,1.486328,-0.02734375,-0.2890625,-0.2387695
1056,39.3125,15.1875,57,-0.2827148,0.4233398,1.379395,-0.02734375,-0.296875,-0.2333984
1057,37.9375,13.75,77.0625,-0.2944336,0.3613281,1.3125,-0.02734375,-0.296875,-0.2333984
1058,37.9375,12.5,101.9375,-0.2705078,0.4462891,1.249023,-0.02734375,-0.2866211,-0.2387695
1059,27.875,9.0625,124.9375,-0.203125,0.527832,1.154297,-0.02197266,-0.2890625,-0.2436523
1060,10.1875,5.5,142.125,-0.190918,0.5893555,1.138184,-0.02197266,-0.2890625,-0.2436523
1061,-7.1875,3.3125,158.9375,-0.230957,0.6010742,1.138184,-0.01660156,-0.3022461,-0.2387695
1062,-25.375,1.1875,176.5625,-0.2426758,0.6088867,1.150391,-0.01171875,-0.2792969,-0.2333984
1063,-40,1.6875,189.5625,-0.1391602,0.5854492,1.122559,-0.01171875,-0.2792969,-0.2333984
1064,-52.1875,0.5,204.6875,-0.00390625,0.4775391,1.185547,-0.006347656,-0.2739258,-0.2358398
1065,-55.875,6,212.0625,-0.01171875,0.4272461,1.217285,-0.006347656,-0.2739258,-0.2358398
1066,-47.75,9.5,229.4375,-0.1313477,0.2651367,1.221191,-0.003417969,-0.2612305,-0.230957
1067,-36.8125,11.125,256.1875,-0.2827148,0.1064453,1.154297,-0.01660156,-0.2509766,-0.2387695
1068,-22.625,8.0625,294.9375,-0.4140625,-0.03613281,1.185547,-0.01660156,-0.2509766,-0.2387695
1069,-11,7.3125,342.375,-0.3144531,0.137207,1.075195,0.009277344,-0.2431641,-0.2358398
1070,-12,3.6875,348.625,-0.09130859,0.2651367,0.972168,0.009277344,-0.2431641,-0.2358398
1071,-16.625,1.375,311.9375,0.1508789,0.3110352,0.9248047,-0.0009765625,-0.2280273,-0.2255859
1072,-42.625,5.75,264.4375,0.4213867,0.3613281,0.8974609,0.02539063,-0.215332,-0.2412109
1073,-32.5,1.25,197.5625,0.5844727,0.168457,1.063477,0.02539063,-0.215332,-0.2412109
1074,-8.625,8.3125,174.5625,0.3974609,-0.05908203,1.122559,0.02294922,-0.2124023,-0.2387695
1075,17.1875,13.625,174.0625,0.2543945,-0.07080078,1.126465,0.03613281,-0.2099609,-0.230957
1076,42.875,16.75,174.3125,0.09912109,0.06005859,1.079102,0.03613281,-0.2099609,-0.230957
1077,57.5625,16.5,175,-0.01611328,0.1411133,1.019531,0.04150391,-0.1948242,-0.2255859
1078,62.5625,15.125,179.1875,-0.06347656,0.237793,0.984375,0.04150391,-0.1948242,-0.2255859
1079,62,13.6875,182.5625,-0.03173828,0.253418,0.8974609,0.06005859,-0.2075195,-0.2490234
1080,56.625,14.125,184.3125,-0.03173828,0.2573242,0.9052734,0.0546875,-0.199707,-0.2333984
1081,50.4375,15.6875,185.0625,0.01953125,0.2573242,0.8735352,0.0546875,-0.199707,-0.2333984
1082,44.3125,17.75,186.4375,0.03125,0.2998047,0.8535156,0.0546875,-0.2021484,-0.2519531
1083,36.5,19.875,187.8125,-0.02001953,0.2958984,0.8535156,0.0546875,-0.2021484,-0.2519531
1084,28.75,22.125,189.5625,-0.04003906,0.3344727,0.8144531,0.07861328,-0.2202148,-0.2519531
1085,22.375,24.125,191.625,-0.06787109,0.3110352,0.8417969,0.07861328,-0.2124023,-0.2412109
1086,17.3125,26.3125,193.25,-0.06347656,0.2763672,0.8339844,0.07861328,-0.2124023,-0.2412109
1087,12.8125,28.0625,195.5,-0.07568359,0.253418,0.8378906,0.09228516,-0.2202148,-0.2412109
1089,10.75,30.0625,197.375,-0.07958984,0.21875,0.9091797,0.08398438,-0.2202148,-0.2412109
1090,11.5,31.6875,199.75,-0.1113281,0.203125,0.8974609,0.08398438,-0.2202148,-0.2412109
1091,14.6875,32.9375,202.75,-0.09960938,0.1606445,0.8891602,0.1030273,-0.215332,-0.2333984
1092,19.6875,34.0625,205.6875,-0.09130859,0.1645508,0.9013672,0.1030273,-0.215332,-0.2333984
1093,25.75,35.4375,208.25,-0.1074219,0.1645508,0.9326172,0.1162109,-0.2202148,-0.2436523
1094,30.3125,36.9375,211.4375,-0.1235352,0.1875,0.9091797,0.1162109,-0.2075195,-0.2412109
1095,31.25,38.0625,213.75,-0.1152344,0.253418,0.9287109,0.1162109,-0.2075195,-0.2412109
1096,29.6875,39.5625,215.3125,-0.1196289,0.2998047,0.956543,0.1347656,-0.215332,-0.246582
1097,26.9375,40.5625,216.75,-0.1352539,0.3110352,0.9365234,0.1347656,-0.215332,-0.246582
1098,24.8125,41.3125,217.5625,-0.1430664,0.3383789,0.9169922,0.15625,-0.2226563,-0.2568359
1099,23.8125,42.625,217.875,-0.1430664,0.3461914,0.9365234,0.1586914,-0.2304688,-0.2519531
1100,22.75,44.75,218,-0.1152344,0.3769531,0.9526367,0.1586914,-0.2304688,-0.2519531
1101,22.9375,46.4375,216.75,-0.1474609,0.3652344,0.9248047,0.1723633,-0.2280273,-0.2519531
1102,25,48.3125,215.25,-0.1669922,0.3847656,0.9760742,0.1831055,-0.2353516,-0.2490234
1103,27.375,50,213.4375,-0.1391602,0.3540039,0.9960938,0.1831055,-0.2353516,-0.2490234
1104,30.5625,52.25,210.125,-0.1235352,0.4116211,1.011719,0.1855469,-0.2431641,-0.2568359
1105,32.875,55.1875,207,-0.1591797,0.4619141,1.023926,0.1855469,-0.2431641,-0.2568359
1106,35.625,58.75,203.25,-0.1313477,0.5043945,1.027832,0.2041016,-0.253418,-0.246582
1107,36.5,62.6875,198.9375,-0.1352539,0.5664063,1,0.2124023,-0.2587891,-0.2568359
1108,33.3125,67.25,193.9375,-0.1035156,0.6279297,1,0.2124023,-0.2587891,-0.2568359
1109,30.3125,72.5625,189.5,-0.07568359,0.6474609,1,0.2231445,-0.2485352,-0.2519531
1110,25.375,78.5625,186.6875,-0.09130859,0.7094727,1.015625,0.2231445,-0.2485352,-0.2519531
1111,20.5,83.9375,183,-0.09570313,0.7592773,1.122559,0.2338867,-0.269043,-0.2490234
1112,16.5625,87.9375,180.4375,-0.1074219,0.7055664,1.138184,0.2470703,-0.2739258,-0.2490234
1113,11.625,88.25,176.3125,-0.1552734,0.7285156,1.162109,0.2470703,-0.2739258,-0.2490234
1114,10.5625,85.4375,172.6875,-0.1791992,0.6977539,1.173828,0.2524414,-0.2890625,-0.2412109
1115,9.375,80.8125,171.1875,-0.190918,0.6821289,1.130371,0.2788086,-0.2714844,-0.2436523
1116,10.125,75,169.5,-0.1513672,0.6591797,1.122559,0.2788086,-0.2714844,-0.2436523
1117,12.6875,70.625,168.375,-0.04394531,0.6704102,1.134277,0.2871094,-0.2944336,-0.2358398
1118,14.5625,69.1875,166.875,0.03125,0.6782227,1.122559,0.2871094,-0.2944336,-0.2358398
1119,16.1875,69.9375,163.9375,0.04345703,0.6860352,1.094727,0.300293,-0.3022461,-0.2412109
1120,18.3125,71.75,158.9375,0.07519531,0.6630859,1.086914,0.300293,-0.3095703,-0.2387695
1121,23.75,73.5,152.5625,0.09912109,0.6743164,1.043457,0.300293,-0.3095703,-0.2387695
1122,27.125,73,145.8125,0.1147461,0.6782227,1.130371,0.3217773,-0.3095703,-0.2387695
1123,33.5,73.125,138.8125,0.1069336,0.6938477,1.177734,0.3217773,-0.3095703,-0.2387695
1124,39.6875,72.75,131.75,0.1425781,0.7207031,1.205566,0.3188477,-0.3198242,-0.2358398
1125,44.0625,72.6875,125.375,0.1108398,0.7670898,1.249023,0.3349609,-0.3300781,-0.2280273
1126,45.5625,72.5,120.5,0.1269531,0.7866211,1.217285,0.3349609,-0.3300781,-0.2280273
1127,41.1875,72.3125,118.1875,0.09082031,0.8330078,1.233398,0.3325195,-0.3457031,-0.2255859
1128,29.75,71.3125,118,0.03955078,0.890625,1.181641,0.340332,-0.355957,-0.2202148
1129,14.125,69.5625,119.5625,-0.04003906,0.9101563,1.177734,0.340332,-0.355957,-0.2202148
1130,-1.1875,67.5625,123,-0.07568359,0.9140625,1.158203,0.3378906,-0.3608398,-0.2226563
1131,-15.6875,64.625,128.3125,-0.1352539,0.8369141,1.118652,0.3378906,-0.3608398,-0.2226563
1132,-25.4375,62.1875,133.5625,-0.1391602,0.7246094,1.122559,0.3618164,-0.3662109,-0.2226563
1133,-30.5625,59.75,138.875,-0.1391602,0.6010742,1.106934,0.3696289,-0.3662109,-0.2148438
1134,-30.3125,58,144,-0.1274414,0.496582,1.154297,0.3696289,-0.3662109,-0.2148438
1135,-25.25,57.3125,149.3125,-0.1352539,0.3925781,1.134277,0.3618164,-0.3662109,-0.2045898
1136,-18.375,57.6875,156.125,-0.1391602,0.3110352,1.086914,0.3618164,-0.3662109,-0.2045898
1137,-11.625,58.5625,162.75,-0.1669922,0.2685547,1.071289,0.375,-0.3867188,-0.2148438
1138,-4.375,59,169.375,-0.1352539,0.2299805,1.071289,0.375,-0.3813477,-0.2094727
1139,1.5625,59.25,176.3125,-0.1474609,0.1723633,1.055176,0.375,-0.3813477,-0.2094727
1140,8.125,59.3125,182.125,-0.1713867,0.137207,1.063477,0.3911133,-0.4042969,-0.2070313
1141,13.8125,59.9375,186.9375,-0.1552734,0.07958984,1.079102,0.3833008,-0.409668,-0.2148438
1142,20.4375,61.5625,189.8125,-0.1791992,0.06787109,1.067383,0.3833008,-0.409668,-0.2148438
1143,25.0625,62.75,191.5625,-0.1791992,0.07177734,1.047363,0.394043,-0.4121094,-0.1962891
1144,28.75,64.8125,190.75,-0.1235352,0.06005859,1.063477,0.394043,-0.4121094,-0.1962891
1145,31.9375,67.375,188.75,-0.1152344,0.04101563,1.059082,0.3911133,-0.4272461,-0.1884766
1146,33.4375,70.0625,184.5625,-0.1274414,0.1025391,1.031738,0.394043,-0.4453125,-0.1884766
1147,33.5625,72.5625,179,-0.08349609,0.137207,1.007813,0.394043,-0.4453125,-0.1884766
1148,31.9375,75.4375,171.9375,-0.07958984,0.1875,0.940918,0.4018555,-0.4555664,-0.1806641
1149,29.1875,78.1875,163.4375,-0.1196289,0.21875,0.9960938,0.4018555,-0.4555664,-0.1806641
1150,26.625,79.8125,155.5,-0.1235352,0.2998047,1.015625,0.4042969,-0.4760742,-0.175293
1151,23.4375,81.3125,147.25,-0.1430664,0.3383789,0.9960938,0.4072266,-0.480957,-0.1704102
1152,18.8125,82.375,138.625,-0.2070313,0.3540039,0.9921875,0.4072266,-0.480957,-0.1704102
1154,13.25,82.75,130.1875,-0.1948242,0.4350586,0.9882813,0.409668,-0.4941406,-0.1728516
1155,6.5625,83.5625,121.875,-0.1831055,0.4389648,0.9804688,0.409668,-0.5014648,-0.1572266
1156,-1.5,84.75,113.8125,-0.2387695,0.4736328,0.9208984,0.409668,-0.5014648,-0.1572266
1157,-12,86.25,106.5,-0.1992188,0.4697266,0.9487305,0.4204102,-0.5146484,-0.1464844
1158,-23.4375,86.875,99,-0.246582,0.5083008,0.9130859,0.4204102,-0.5146484,-0.1464844
1159,-34.125,86.75,92.125,-0.2983398,0.5200195,0.9326172,0.4125977,-0.5092773,-0.1518555
1160,-45.8125,84.625,85.25,-0.3144531,0.5351563,0.9169922,0.4233398,-0.5170898,-0.1518555
1161,-55.75,81.375,79.9375,-0.3540039,0.5507813,0.9643555,0.4233398,-0.5170898,-0.1518555
1162,-63.6875,75.625,75.125,-0.4057617,0.5507813,0.956543,0.4204102,-0.5117188,-0.1411133
1163,-70.375,68.75,71.8125,-0.4536133,0.5043945,0.9487305,0.4204102,-0.5117188,-0.1411133
1164,-75.9375,61.5625,69.25,-0.4575195,0.4697266,0.8974609,0.434082,-0.5043945,-0.144043
1165,-78.6875,54.3125,66.6875,-0.4257813,0.3999023,0.9052734,0.4311523,-0.5043945,-0.1386719
1166,-76.6875,48.1875,64.1875,-0.4257813,0.3574219,0.9130859,0.4311523,-0.5043945,-0.1386719
1167,-71.25,43,60.625,-0.3623047,0.3305664,0.8735352,0.4365234,-0.5092773,-0.1411133
1168,-62.875,38.8125,56.3125,-0.3261719,0.2495117,0.9052734,0.449707,-0.5146484,-0.144043
1169,-52.5625,35.9375,50.625,-0.3383789,0.2685547,0.9448242,0.449707,-0.5146484,-0.144043
1170,-39.0625,33,42.6875,-0.3222656,0.2456055,0.9526367,0.4394531,-0.5068359,-0.144043
1171,-25.1875,29.875,34.6875,-0.3461914,0.2685547,0.9643555,0.4394531,-0.5068359,-0.144043
1172,-11.375,27.375,26,-0.3422852,0.2685547,1.035645,0.4418945,-0.5043945,-0.1411133
1173,0.625,24.6875,18.0625,-0.3183594,0.2998047,1.047363,0.4394531,-0.5014648,-0.1411133
1174,9.6875,21.875,11.625,-0.3344727,0.3188477,1.039551,0.4394531,-0.5014648,-0.1411133
1175,14.5,18,5.8125,-0.3583984,0.3383789,1.071289,0.4443359,-0.5117188,-0.1357422
1176,14.75,14.875,0.8125,-0.3500977,0.3383789,1.079102,0.4443359,-0.5117188,-0.1357422
1177,14.25,11.3125,-3.5625,-0.3500977,0.3266602,1.122559,0.4365234,-0.5146484,-0.1333008
1178,18.6875,7.25,-7,-0.3344727,0.3305664,1.09082,0.4443359,-0.5117188,-0.1464844
1179,24.6875,3.375,-9.375,-0.3344727,0.3574219,1.094727,0.4443359,-0.5117188,-0.1464844
1180,28.9375,1,-11.125,-0.2866211,0.3574219,1.067383,0.4443359,-0.5117188,-0.1464844
1181,32,0.5,-13.375,-0.2426758,0.3383789,1.039551,0.4418945,-0.5170898,-0.1386719
1182,34.8125,0.9375,-15.625,-0.2270508,0.3076172,1.023926,0.4418945,-0.5170898,-0.1386719
1183,40.5625,1.8125,-17.3125,-0.2270508,0.2958984,1.047363,0.4418945,-0.5170898,-0.1386719
1184,50.0625,3.375,-19.75,-0.190918,0.2612305,1.059082,0.4418945,-0.5170898,-0.1386719
1185,61.6875,6.1875,-21.875,-0.1391602,0.2802734,1.059082,0.4472656,-0.5170898,-0.1279297
1186,68.625,10.0625,-23.4375,-0.09960938,0.2802734,1.059082,0.4472656,-0.5170898,-0.1279297
1187,73.1875,15.1875,-25.5,-0.03173828,0.3149414,1.043457,0.4472656,-0.5170898,-0.1279297
1188,76.8125,20.25,-29.375,-0.05175781,0.3227539,1.059082,0.4580078,-0.5219727,-0.1230469
1189,81.375,25.625,-33,-0.02001953,0.3305664,1.031738,0.4580078,-0.5219727,-0.1230469
1190,84.8125,29.875,-37,-0.0078125,0.3383789,1.067383,0.4580078,-0.5219727,-0.1230469
1191,87.8125,34.0625,-39.625,-0.01171875,0.3383789,1.063477,0.4580078,-0.5273438,-0.1098633
1192,97.4375,38.0625,-42.5625,-0.05175781,0.3540039,1.059082,0.4580078,-0.5273438,-0.1098633
1193,107.5,43.125,-44.25,-0.04003906,0.3691406,1.015625,0.4580078,-0.5273438,-0.1098633
1194,112.125,47.375,-47.5,-0.03173828,0.3886719,0.9487305,0.4604492,-0.5527344,-0.09912109
1195,111.875,50.625,-53.1875,-0.02001953,0.3925781,0.9052734,0.4604492,-0.5527344,-0.09912109
1196,109.625,52.5,-57.125,0,0.3652344,0.8974609,0.4604492,-0.5527344,-0.09912109
1197,108.875,53.625,-62.0625,0.007324219,0.3730469,0.8378906,0.4604492,-0.5527344,-0.09912109
1198,107.875,54.0625,-66.25,-0.03173828,0.3266602,0.9130859,0.4873047,-0.5629883,-0.0859375
1199,118.25,57.1875,-64.1875,-0.04394531,0.2841797,0.984375,0.4873047,-0.5629883,-0.0859375
1200,152.0625,71.5,-56.625,0.007324219,0.2070313,0.7827148,0.4873047,-0.5629883,-0.0859375
1201,152.9375,58.75,-65.5625,0.03125,-0.004882813,0.05126953,0.5004883,-0.5629883,-0.05175781
1202,98.25,47.6875,-54.9375,0.07910156,1.223145,1.324219,0.5112305,-0.5683594,-0.04931641
1203,109.5625,48.25,-52.125,-0.1669922,0.8408203,1.521973,0.5112305,-0.5683594,-0.04931641
1204,156.625,37.125,-42.6875,-0.1352539,0.137207,1.683594,0.5112305,-0.5732422,-0.03076172
1205,251.3125,39.375,-29.5625,-0.0078125,-0.2714844,1.549316,0.5112305,-0.5732422,-0.03076172
1206,364.0625,44.9375,0.0625,0.1469727,-0.05908203,1.379395,0.5219727,-0.5834961,-0.02294922
1207,441.875,48.4375,15.8125,0.2382813,0.4775391,1.098633,0.5195313,-0.6142578,-0.01220703
1208,467.25,44.125,13.6875,0.1826172,0.7944336,0.8618164,0.5195313,-0.6142578,-0.01220703
1209,450.8125,41.5625,18,0.1269531,1.049316,0.7470703,0.5219727,-0.6293945,0.02392578
1210,419.5,37.375,16.75,0.1308594,1.196289,0.6796875,0.5219727,-0.6293945,0.02392578
1211,380.375,38.75,13.9375,0.1069336,1.103516,0.5732422,0.5219727,-0.6625977,0.06103516
1212,349.125,41.375,18.625,0.06738281,0.9990234,0.4584961,0.5195313,-0.6704102,0.09765625
1213,331,46,24.25,0.01953125,0.9951172,0.2373047,0.5195313,-0.6704102,0.09765625
1214,306.875,50.8125,21.25,-0.01171875,1.00293,0.1420898,0.5273438,-0.6860352,0.1240234
1215,275.625,59.5625,20.875,-0.09570313,1.107422,-0.0390625,0.5166016,-0.690918,0.1582031
1216,222,56.1875,24.1875,-0.21875,1.130371,-0.2641602,0.5166016,-0.690918,0.1582031
1217,172.6875,53.25,14.6875,-0.246582,1.165039,-0.09033203,0.5141602,-0.706543,0.1743164
1219,111.1875,44.875,9.25,-0.3344727,1.099609,0.07519531,0.5141602,-0.706543,0.1743164
1220,72.375,39.75,2.4375,-0.3261719,0.9487305,0.2768555,0.5219727,-0.706543,0.1899414
1221,59.9375,37.125,-5.125,-0.3583984,0.6977539,0.3515625,0.5166016,-0.7114258,0.203125
1222,59.8125,35.5625,-6.3125,-0.4057617,0.6357422,0.2963867,0.5166016,-0.7114258,0.203125
1223,56.8125,30.125,-8.125,-0.4458008,0.6938477,0.4345703,0.5166016,-0.7036133,0.203125
1224,63.9375,27.5625,-14.4375,-0.4658203,0.6704102,0.6362305,0.5166016,-0.7036133,0.203125
1225,76.8125,27.25,-16.0625,-0.5292969,0.5200195,0.8300781,0.5219727,-0.7138672,0.2133789
1226,119,31.5625,-16.875,-0.4257813,0.3344727,0.9091797,0.5195313,-0.7089844,0.2241211
1227,177.0625,37.6875,-14.1875,-0.3701172,0.2612305,0.9130859,0.5195313,-0.7089844,0.2241211
1228,233.4375,44.125,-11.8125,-0.2226563,0.3613281,0.6879883,0.5244141,-0.7114258,0.2319336
1229,251.9375,49.6875,-15.375,-0.1035156,0.546875,0.5532227,0.5273438,-0.6933594,0.269043
1230,269.5625,57.25,-25.6875,-0.09570313,0.4775391,0.4624023,0.5273438,-0.6933594,0.269043
1231,275.75,59.0625,-31.6875,-0.07568359,0.4350586,0.1738281,0.5351563,-0.706543,0.2871094
1232,257.25,50.3125,-34.25,-0.0078125,0.6010742,0.5849609,0.5351563,-0.706543,0.2871094
1233,271.75,62.1875,-45.625,0.1147461,0.4736328,0.1420898,0.5244141,-0.690918,0.3056641
1234,272.25,65.1875,-54.875,0.2978516,0.4428711,-0.1259766,0.5297852,-0.6806641,0.3374023
1235,275.5625,69.625,-68.5625,0.4135742,0.527832,-0.2919922,0.5297852,-0.6806641,0.3374023
1236,265.9375,73.8125,-47.0625,-0.3623047,0.5239258,-0.703125,0.5380859,-0.6728516,0.3637695
1237,253.75,-14.25,-10.375,-0.2226563,1.875977,1.628418,0.5380859,-0.6728516,0.3637695
1238,80.5,12.375,-42.125,0.1508789,2.235352,0.2607422,0.5327148,-0.6577148,0.3901367
1239,54.375,-5.375,-42.6875,0.2265625,1.134277,0.2685547,0.543457,-0.6601563,0.3979492
1240,40.9375,0.3125,-30.6875,0.3256836,0.7631836,0.01171875,0.543457,-0.6601563,0.3979492
1241,54,11.1875,-31.4375,0.2104492,0.7480469,-0.1142578,0.5458984,-0.6552734,0.3979492
1242,59.625,16.25,-26.375,-0.04003906,0.8984375,-0.1142578,0.5488281,-0.6552734,0.4033203
1243,57.3125,15.125,-29.375,-0.02392578,1.20752,-0.1499023,0.5488281,-0.6552734,0.4033203
1244,39.5625,13.375,-38.375,-0.00390625,1.149902,-0.1694336,0.5488281,-0.6425781,0.4057617
1245,28.4375,18.0625,-39.125,0,0.9760742,-0.1616211,0.5488281,-0.6425781,0.4057617
1246,42.1875,22.9375,-34.5625,-0.03564453,0.890625,0,0.5458984,-0.6450195,0.4057617
1247,72.375,38.75,-24,-0.1035156,1.149902,-0.2998047,0.5488281,-0.6347656,0.4033203
1248,40.6875,43.625,-27.8125,-0.06347656,1.547852,-1.359375,0.5488281,-0.6347656,0.4033203
1249,-42.875,40.9375,-41,-0.2270508,1.451172,-0.8847656,0.5488281,-0.6347656,0.4213867
1250,-134.8125,41.875,-37.5,-0.3540039,1.466309,-0.9677734,0.5488281,-0.6347656,0.4213867
1251,-234.75,28.5,-44.875,-0.4140625,1.396973,-0.5014648,0.5512695,-0.6323242,0.4243164
1252,-337.1875,9.3125,-60.375,-0.2509766,1.053223,0.3911133,0.5566406,-0.637207,0.4057617
1253,-324.375,9.25,-72.3125,-0.00390625,0.3999023,1.007813,0.5566406,-0.637207,0.4057617
1254,-240.25,8.5,-115.9375,0.003417969,-0.2485352,0.9487305,0.5595703,-0.6523438,0.3793945
1255,-75.875,18.4375,-86.5,-0.3979492,-0.1826172,1.727051,0.5649414,-0.6396484,0.3637695
1256,72.75,34.6875,-43.5,-0.5014648,-0.3759766,0.1186523,0.5649414,-0.6396484,0.3637695
1257,130,43.0625,-46.3125,-0.7084961,1.157227,-0.5605469,0.5727539,-0.6347656,0.3793945
1258,106.375,42.8125,-38.8125,-0.597168,1.663574,-0.434082,0.5727539,-0.6347656,0.3793945
1259,17.5625,42.625,-56.125,-0.6450195,1.756348,-0.6635742,0.5698242,-0.6269531,0.3925781
1260,-55.4375,45.5625,-63.5625,-0.625,1.48584,-0.5092773,0.5751953,-0.6142578,0.3950195
1261,-77.125,46.4375,-67.6875,-0.7602539,0.8637695,-0.3354492,0.5751953,-0.6142578,0.3950195
1262,-50.25,50.1875,-57.9375,-0.9472656,0.5351563,-0.1577148,0.578125,-0.6191406,0.3979492
1263,-5.0625,50.3125,-45.9375,-1.050781,0.546875,-0.06298828,0.578125,-0.6191406,0.3979492
1264,41.25,51.875,-31,-1.102539,0.6279297,-0.1972656,0.5751953,-0.6220703,0.4033203
1265,66.875,48.125,-10,-1.070801,0.956543,-0.3789063,0.5805664,-0.6166992,0.4057617
1266,68.9375,40.375,7.25,-1.00293,1.304199,-0.418457,0.5805664,-0.6166992,0.4057617
1267,57.4375,37.6875,7.75,-0.8955078,1.451172,-0.5170898,0.5698242,-0.6040039,0.4135742
1268,39.9375,36.8125,10.25,-0.8837891,1.470215,-0.5844727,0.5805664,-0.6015625,0.4111328
1269,24.75,35.625,18.3125,-0.8476563,1.474121,-0.6279297,0.5805664,-0.6015625,0.4111328
1270,11.1875,38.125,23.25,-0.7841797,1.427734,-0.6635742,0.5698242,-0.6142578,0.4243164
1271,-0.5625,42.75,28.5625,-0.7441406,1.315918,-0.6435547,0.5698242,-0.6142578,0.4243164
1272,-11,49.5625,36.1875,-0.6328125,1.319824,-0.6479492,0.5649414,-0.6142578,0.4321289
1273,-23.5,58.4375,41.9375,-0.5571289,1.315918,-0.6240234,0.5488281,-0.6040039,0.4399414
1274,-39.875,67.75,47.1875,-0.4658203,1.331543,-0.6083984,0.5488281,-0.6040039,0.4399414
1275,-59.8125,75.5625,50.9375,-0.4101563,1.300293,-0.5371094,0.5512695,-0.6142578,0.4345703
1276,-79.5,83,53.75,-0.3823242,1.242676,-0.4541016,0.5512695,-0.6142578,0.4345703
1277,-94.5625,89.5625,58.6875,-0.3066406,1.223145,-0.3632813,0.5488281,-0.6269531,0.4321289
1278,-105.125,93.75,63.875,-0.2548828,1.157227,-0.2246094,0.5405273,-0.6166992,0.4423828
1279,-120.5,95.1875,64.25,-0.2548828,1.126465,-0.1538086,0.5405273,-0.6166992,0.4423828
1280,-131.9375,95.6875,64.125,-0.2705078,0.9794922,-0.01123047,0.5297852,-0.6396484,0.4506836
1281,-130.1875,97.875,67.875,-0.2509766,0.9604492,0.015625,0.5244141,-0.6625977,0.4399414
1282,-125.25,100.5,73.0625,-0.21875,0.9833984,0.05908203,0.5244141,-0.6625977,0.4399414
1284,-124,103.4375,79,-0.21875,1.072266,-0.03125,0.5058594,-0.6704102,0.4243164
1285,-126.3125,95.9375,78.9375,-0.1391602,1.161133,0.1420898,0.5058594,-0.6704102,0.4243164
1286,-125.375,95.3125,78.25,-0.1791992,1.219238,-0.0234375,0.503418,-0.6625977,0.4321289
1287,-143.875,85.375,70.25,-0.203125,1.215332,-0.1103516,0.4951172,-0.690918,0.4399414
1288,-154.0625,73.375,65,-0.2587891,1.188477,-0.01513672,0.4951172,-0.690918,0.4399414
1289,-152.3125,63.3125,62.75,-0.3500977,1.087891,-0.003417969,0.4897461,-0.7089844,0.4321289
1290,-151.9375,53.8125,62.9375,-0.4736328,1.061035,0.05517578,0.4897461,-0.7089844,0.4321289
1291,-141.6875,45.625,62.0625,-0.625,1.114746,-0.05078125,0.46875,-0.7114258,0.4189453
1292,-145.4375,37.0625,56.6875,-0.7324219,1.126465,-0.1376953,0.4711914,-0.7163086,0.4135742
1293,-148.5625,15,54.5,-0.9116211,1.014648,0.1342773,0.4711914,-0.7163086,0.4135742
1294,-153.375,-18.75,48.1875,-1.015137,0.9912109,0.5810547,0.4604492,-0.7319336,0.4033203
1295,-175.6875,-43.5,40.1875,-0.9233398,0.7866211,0.7509766,0.4604492,-0.7397461,0.3901367
1296,-194.875,-51.625,41.5625,-0.7285156,0.7788086,-0.05078125,0.4604492,-0.7397461,0.3901367
1297,-214.125,-44.3125,38,-0.855957,0.6665039,-0.8413086,0.4443359,-0.75,0.3583984
1298,-263.0625,-44.6875,18.125,-0.7763672,0.9331055,-0.8056641,0.4443359,-0.75,0.3583984
1299,-303.3125,-27,-0.8125,-0.668457,0.7905273,-0.8691406,0.4604492,-0.7548828,0.3374023
1300,-341.625,-11.5,-14,-0.5493164,0.5742188,-0.7543945,0.4580078,-0.7573242,0.3164063
1301,-348.3125,5.4375,-30,-0.4936523,0.2573242,-0.6162109,0.4580078,-0.7573242,0.3164063
1302,-309.0625,19.6875,-38.9375,-0.4814453,0.02148438,-0.390625,0.4550781,-0.7548828,0.2822266
1303,-227.625,38.25,-31.6875,-0.394043,-0.1479492,-0.3393555,0.4550781,-0.7548828,0.2822266
1304,-121.5,50.0625,-28.3125,-0.2070313,-0.1015625,-0.1616211,0.4658203,-0.7573242,0.2558594
1305,1.9375,58.5625,-17.5625,-0.07568359,0.009765625,0.1264648,0.4550781,-0.7602539,0.2451172
1306,140.1875,82.9375,2.0625,0.1547852,0.1298828,-0.2880859,0.4550781,-0.7602539,0.2451172
1307,202.3125,84.5625,14.25,0.5805664,0.3730469,-0.6674805,0.4604492,-0.7548828,0.2636719
1308,197.875,94.625,11.75,0.7519531,0.8833008,-0.4541016,0.4580078,-0.7602539,0.2714844
1309,175.125,119.25,13.125,0.6762695,1.312012,-0.6279297,0.4580078,-0.7602539,0.2714844
1310,118.125,97.375,29,0.1469727,1.617188,-0.3354492,0.4580078,-0.7573242,0.300293
1311,128.25,-16.1875,50.125,-0.3740234,1.408691,2.675781,0.4580078,-0.7573242,0.300293
1312,73.8125,25.8125,48.875,-0.1035156,1.895508,1.375488,0.4526367,-0.7524414,0.3188477
1313,-39.125,7.75,17.875,0.3579102,2.239258,0.5336914,0.4526367,-0.7548828,0.3242188
1314,-102.6875,17.625,-28.375,0.3735352,1.029785,-0.6713867,0.4526367,-0.7548828,0.3242188
1315,-147.9375,10.6875,-23.8125,0.2939453,0.1875,-0.9755859,0.4526367,-0.7548828,0.3295898
1316,-102.875,19.625,-8.4375,0.2104492,0.009765625,-0.2446289,0.4526367,-0.7548828,0.3295898
1317,-51.4375,47.375,-8.625,0.1308594,0.04833984,-0.4223633,0.4550781,-0.7602539,0.3032227
1318,-31,52.625,-13.375,0.007324219,0.1992188,-0.3510742,0.4633789,-0.7524414,0.3056641
1319,-8.3125,52.25,-15.5,-0.1474609,0.4311523,-0.1103516,0.4633789,-0.7524414,0.3056641
1320,8.9375,51.25,-11.5,-0.1552734,0.7670898,0.1420898,0.4580078,-0.7548828,0.3110352
1321,7.75,48.5625,-14.5625,-0.1152344,0.8793945,0.03173828,0.4550781,-0.7524414,0.3164063
1322,-6.375,40.1875,-18.4375,-0.1870117,0.7983398,-0.05859375,0.4550781,-0.7524414,0.3164063
1323,-19.6875,32.625,-15.3125,-0.3305664,0.7944336,0.1186523,0.4550781,-0.7602539,0.3266602
1324,-16.625,23.9375,-8.875,-0.4101563,0.8637695,0.284668,0.4550781,-0.7602539,0.3266602
1325,-7.1875,16.3125,-0.5,-0.3901367,1.010742,0.3637695,0.4550781,-0.7602539,0.3188477
1326,7.25,9.625,4,-0.3779297,1.076172,0.2807617,0.4550781,-0.7626953,0.3212891
1327,16.125,-1.6875,4.8125,-0.4057617,1.076172,0.3081055,0.4550781,-0.7626953,0.3212891
1328,21.75,-9.1875,4.8125,-0.4736328,1.053223,0.2211914,0.4526367,-0.7573242,0.3242188
1329,23.8125,-15.5625,4.875,-0.5253906,1.029785,0.1699219,0.4526367,-0.7573242,0.3242188
1330,26.9375,-19.6875,5.8125,-0.5053711,1.049316,0.1420898,0.449707,-0.7548828,0.3134766
1331,25.1875,-21.6875,7.75,-0.4697266,1.130371,0.09472656,0.449707,-0.7705078,0.3188477
1332,20.3125,-21.1875,6.4375,-0.4101563,1.107422,0.06347656,0.449707,-0.7705078,0.3188477
1333,13,-20.0625,4.9375,-0.4335938,1.080078,0.05908203,0.449707,-0.7705078,0.3188477
1334,5.625,-18.5,3.5,-0.4257813,1.006836,0.09472656,0.4550781,-0.7548828,0.3295898
1335,-0.1875,-16.1875,1.0625,-0.4536133,0.940918,0.1225586,0.4550781,-0.7548828,0.3295898
1336,-3.5625,-13.875,-1.875,-0.5415039,0.8134766,0.1777344,0.4550781,-0.7548828,0.3295898
1337,-4.5,-8.8125,-4.5,-0.6049805,0.6977539,0.1464844,0.4550781,-0.7548828,0.3295898
1338,5.875,5.4375,-2.4375,-0.6767578,0.7788086,-0.046875,0.4472656,-0.7573242,0.3212891
1339,13.5,2.375,-5.1875,-0.625,0.8408203,-0.01123047,0.4472656,-0.7573242,0.3212891
1340,1.625,5.375,-9.1875,-0.5214844,0.7285156,0.3320313,0.4472656,-0.7573242,0.3212891
1341,11.9375,10.8125,-7.75,-0.421875,0.8056641,0.328125,0.4604492,-0.7573242,0.3164063
1342,14.5625,11.875,-6.875,-0.4101563,0.8945313,0.2885742,0.4604492,-0.7573242,0.3164063
1343,7.875,11.625,-6.75,-0.4379883,0.9682617,0.3793945,0.4604492,-0.7573242,0.3164063
1344,-3.9375,11.1875,-8.375,-0.449707,0.9487305,0.4033203,0.4526367,-0.7548828,0.3242188
1345,-11.6875,7.5625,-12.4375,-0.4418945,0.890625,0.4863281,0.4526367,-0.7548828,0.3242188
1346,-12.0625,7.0625,-14.375,-0.4853516,0.8408203,0.4824219,0.4526367,-0.7548828,0.3242188
1347,-8.3125,5.6875,-14.8125,-0.4335938,0.8481445,0.5097656,0.4550781,-0.7602539,0.3266602
1349,-8.0625,5.625,-15.1875,-0.4658203,0.8945313,0.5019531,0.4550781,-0.7602539,0.3266602
1350,-8.0625,5.3125,-14.25,-0.4536133,0.9370117,0.4741211,0.4550781,-0.7602539,0.3266602
1351,-11.9375,5.875,-13.9375,-0.4697266,0.9448242,0.4941406,0.4550781,-0.7602539,0.3266602
1352,-18.625,7.0625,-14.5625,-0.4697266,0.9448242,0.4506836,0.4604492,-0.7524414,0.3266602
1353,-22.625,7.4375,-13.6875,-0.4936523,0.8754883,0.4941406,0.4604492,-0.7524414,0.3266602
1354,-15.0625,5.875,-9.6875,-0.5332031,0.890625,0.5693359,0.4604492,-0.7524414,0.3266602
1355,-12.375,8.4375,-3.875,-0.5092773,1.029785,0.5219727,0.4604492,-0.7524414,0.3242188
1356,-18.75,8.25,-3.3125,-0.5175781,1.029785,0.4902344,0.4604492,-0.7524414,0.3164063
1357,-29.1875,8.0625,-3.6875,-0.5693359,0.9101563,0.4467773,0.4604492,-0.7524414,0.3164063
1358,-36.1875,7,-4.875,-0.6010742,0.7905273,0.5336914,0.4658203,-0.7470703,0.3242188
1359,-35.5,5.0625,-5.8125,-0.6049805,0.7749023,0.5693359,0.4658203,-0.7470703,0.3242188
1360,-31.0625,4.1875,-6.375,-0.5532227,0.7441406,0.5966797,0.4604492,-0.75,0.3188477
1361,-29.3125,2.875,-7.3125,-0.6010742,0.8251953,0.5693359,0.4633789,-0.7446289,0.3110352
1362,-32.3125,0.1875,-9.3125,-0.6010742,0.8833008,0.5693359,0.4633789,-0.7446289,0.3110352
1363,-38.9375,-3.4375,-11.1875,-0.612793,0.9023438,0.5888672,0.4633789,-0.7524414,0.3081055
1364,-45.5,-8.4375,-12.3125,-0.6088867,0.9331055,0.6323242,0.4633789,-0.7524414,0.3081055
1365,-50.6875,-15.25,-13.1875,-0.6010742,0.9370117,0.6401367,0.4658203,-0.7421875,0.300293
1366,-56.6875,-20,-14.375,-0.5771484,0.956543,0.6206055,0.4604492,-0.7524414,0.2978516
1367,-65.875,-22.125,-15.625,-0.5932617,0.8945313,0.5097656,0.4604492,-0.7524414,0.2978516
1368,-75.9375,-22.9375,-15.5,-0.597168,0.887207,0.4702148,0.4658203,-0.75,0.2871094
1369,-83.375,-23.625,-13.9375,-0.6367188,0.90625,0.371582,0.4765625,-0.7470703,0.2822266
1370,-88.0625,-27.9375,-10.3125,-0.640625,0.90625,0.4072266,0.4765625,-0.7470703,0.2822266
1371,-93.5625,-27.8125,-4.375,-0.6010742,0.940918,0.4624023,0.4604492,-0.7524414,0.2768555
1372,-102.4375,-24.9375,-1.6875,-0.5493164,0.8754883,0.4941406,0.4604492,-0.7524414,0.2768555
1373,-94.75,-26.875,2.625,-0.6289063,0.6357422,0.4663086,0.46875,-0.7524414,0.2504883
1374,-70.6875,-27.75,5.3125,-0.5771484,0.5854492,0.6362305,0.4765625,-0.7548828,0.2583008
1375,-23.25,-27.75,21,-0.5053711,0.5390625,0.5454102,0.4765625,-0.7548828,0.2583008
1376,18.75,-31.4375,25.875,-0.3066406,0.5390625,0.5336914,0.4604492,-0.7524414,0.2397461
1377,44.4375,-27.6875,26.25,-0.2548828,0.5625,0.5297852,0.4604492,-0.7524414,0.2397461
1378,51.0625,-16.375,33.1875,-0.2666016,0.5703125,0.2885742,0.4633789,-0.7548828,0.2480469
1379,28.8125,-10.25,32.75,-0.3583984,0.7670898,0.2412109,0.4633789,-0.7548828,0.2504883
1380,3.375,-1.8125,32.1875,-0.5454102,0.8173828,0.2924805,0.4633789,-0.7548828,0.2504883
1381,-16.1875,6.5625,34,-0.5810547,0.7519531,0.1503906,0.4658203,-0.7602539,0.2583008
1382,-23.3125,10.625,31.875,-0.5610352,0.5854492,0.1660156,0.4580078,-0.7548828,0.2451172
1383,-13.625,21.3125,27.9375,-0.4057617,0.4350586,0.06738281,0.4580078,-0.7548828,0.2451172
1384,18.8125,26.1875,27.25,-0.3383789,0.2958984,0.1582031,0.4580078,-0.7626953,0.2529297
1385,50.8125,33.125,30.25,-0.3500977,0.4658203,0.1303711,0.4580078,-0.7626953,0.2529297
1386,62.9375,33.375,24.125,-0.3461914,0.6435547,0.3359375,0.449707,-0.7626953,0.2558594
1387,62.125,31.0625,19.375,-0.3583984,0.6938477,0.6088867,0.4443359,-0.7626953,0.2636719
1388,56.3125,24.6875,17.4375,-0.3740234,0.7670898,0.7626953,0.4443359,-0.7626953,0.2636719
1389,37.375,21,13.9375,-0.3144531,0.8408203,0.6757813,0.4472656,-0.7729492,0.2739258
1390,5.8125,13.25,6.625,-0.2705078,0.8173828,0.5927734,0.4472656,-0.7729492,0.2739258
1391,-19.8125,5.75,-1.4375,-0.2509766,0.6591797,0.5693359,0.4472656,-0.7675781,0.2822266
1392,-30.1875,2.125,-8.4375,-0.3344727,0.3886719,0.5415039,0.4472656,-0.7573242,0.2768555
1393,-18.75,0.3125,-11.6875,-0.3461914,0.253418,0.4506836,0.4472656,-0.7573242,0.2768555
1394,-3.0625,-0.3125,-14.5,-0.3461914,0.2998047,0.3994141,0.4526367,-0.7626953,0.2739258
1395,16.625,-2,-18.4375,-0.2983398,0.4541016,0.387207,0.4443359,-0.7573242,0.2739258
1396,30.0625,-3.5625,-22.375,-0.2788086,0.6474609,0.4150391,0.4443359,-0.7573242,0.2739258
1397,33.375,-4.75,-25.25,-0.2905273,0.7749023,0.3515625,0.4418945,-0.7626953,0.269043
1398,26.125,-5.125,-28.3125,-0.3027344,0.7866211,0.3676758,0.4418945,-0.7626953,0.269043
1399,19.6875,-4.8125,-28.4375,-0.3222656,0.8251953,0.4306641,0.4580078,-0.7602539,0.2792969
1400,11.75,-2.625,-28.3125,-0.3500977,0.8291016,0.4306641,0.4633789,-0.7548828,0.269043
1401,10.625,-1.375,-28,-0.3500977,0.7944336,0.3911133,0.4633789,-0.7548828,0.269043
1402,18.0625,-1.0625,-27,-0.3461914,0.7866211,0.4467773,0.4550781,-0.7602539,0.284668
1403,30.1875,-0.375,-24.9375,-0.3740234,0.8251953,0.4741211,0.4550781,-0.7602539,0.284668
1404,41,0,-22.125,-0.3662109,0.8520508,0.4428711,0.4604492,-0.7524414,0.2768555
1405,44.3125,0.9375,-19.625,-0.3823242,0.9487305,0.4228516,0.4604492,-0.7573242,0.2822266
1406,43.875,1.5,-19.375,-0.3740234,0.9873047,0.4389648,0.4604492,-0.7573242,0.2822266
1407,45.75,1.1875,-18.8125,-0.3500977,1.006836,0.4702148,0.4741211,-0.7548828,0.2822266
1408,52.875,0.5625,-17.4375,-0.3422852,0.9526367,0.4467773,0.4741211,-0.7524414,0.2822266
1409,62.375,0.25,-17.125,-0.3383789,0.9179688,0.4663086,0.4741211,-0.7524414,0.2822266
1410,70.1875,0,-17.1875,-0.3461914,0.940918,0.4033203,0.46875,-0.7548828,0.2978516
1411,74.875,-0.25,-16.6875,-0.3422852,0.9760742,0.3793945,0.46875,-0.7548828,0.2978516
1412,70.5,1.625,-15.5,-0.3183594,1.006836,0.2729492,0.4765625,-0.7421875,0.2978516
1414,60.0625,5,-13.9375,-0.2983398,1.091797,0.1621094,0.4765625,-0.7470703,0.3134766
1415,42.375,7.75,-13.8125,-0.3027344,1.118652,-0.01513672,0.4765625,-0.7470703,0.3134766
1416,26.75,7.1875,-16.5625,-0.2788086,1.083984,0.1660156,0.4819336,-0.7446289,0.3164063
1417,23.9375,10.9375,-14.375,-0.3105469,1.103516,0.1660156,0.4819336,-0.7446289,0.3164063
1418,24.0625,13.3125,-10.6875,-0.4101563,1.134277,0.1777344,0.4658203,-0.734375,0.3188477
1419,16.4375,13.6875,-7.5625,-0.4575195,1.304199,0.05126953,0.4741211,-0.7319336,0.3134766
1420,1.0625,11.3125,-9.1875,-0.3979492,1.312012,0.03564453,0.4741211,-0.7319336,0.3134766
1421,-14.6875,9.375,-10.75,-0.3740234,1.28125,0.1303711,0.4765625,-0.7446289,0.3266602
1422,-24.3125,9.9375,-9.4375,-0.3222656,1.168945,0.1264648,0.4765625,-0.734375,0.3188477
1423,-24.8125,9.5625,-8.9375,-0.3623047,1.161133,0.1303711,0.4765625,-0.734375,0.3188477
1424,-21.9375,8,-8.875,-0.3623047,1.072266,0.1186523,0.4741211,-0.734375,0.3212891
1425,-18.9375,6.8125,-9,-0.3105469,1.076172,0.1108398,0.4741211,-0.734375,0.3212891
1426,-14.875,6.6875,-8.0625,-0.2944336,1.076172,0.02783203,0.4819336,-0.7397461,0.3212891
1427,-12.0625,7.6875,-6.125,-0.2666016,1.107422,-0.007324219,0.4819336,-0.7470703,0.3188477
1428,-13.625,8.6875,-3.5625,-0.3144531,1.14209,-0.01513672,0.4819336,-0.7470703,0.3188477
1429,-11.125,7.375,-2.3125,-0.3105469,1.095703,-0.04296875,0.4794922,-0.7368164,0.3212891
1430,-4.6875,6.0625,-1.25,-0.2666016,0.9682617,-0.01123047,0.4794922,-0.7368164,0.3212891
1431,1.6875,6.4375,0.5625,-0.2070313,0.9296875,0.04736328,0.4819336,-0.7265625,0.3242188
1432,5.875,6.625,2.25,-0.1870117,0.9526367,0.05126953,0.484375,-0.734375,0.3212891
1433,3.25,7.125,3.0625,-0.1791992,1.014648,-0.01513672,0.484375,-0.734375,0.3212891
1434,-2.8125,6.3125,4.9375,-0.190918,1.057129,-0.07861328,0.4819336,-0.7446289,0.3242188
1435,-7.3125,5.8125,7,-0.175293,1.04541,-0.046875,0.4794922,-0.7397461,0.3242188
1436,-8.8125,5.8125,8.875,-0.1713867,0.9833984,-0.09033203,0.4794922,-0.7397461,0.3242188
1437,-7.875,5.5,11.25,-0.1948242,0.9794922,-0.1337891,0.4819336,-0.734375,0.3188477
1438,-3.4375,5,13.8125,-0.1948242,0.956543,-0.0546875,0.4819336,-0.734375,0.3188477
1439,3.0625,5.4375,14.25,-0.1591797,0.9448242,-0.07470703,0.4711914,-0.7397461,0.3212891
1440,12.3125,4.3125,15.875,-0.1313477,0.90625,0.03955078,0.4794922,-0.7446289,0.3212891
1441,25.0625,3.1875,16.5,-0.1235352,0.8369141,0.05517578,0.4794922,-0.7446289,0.3212891
1442,39.875,2.9375,17.75,-0.08349609,0.7827148,0.04345703,0.4741211,-0.7368164,0.3344727
1443,52.125,3.0625,18.9375,-0.05566406,0.8134766,0.09472656,0.4741211,-0.7368164,0.3344727
1444,58.5625,4.4375,19.25,-0.09960938,0.8754883,0.00390625,0.4794922,-0.7470703,0.3242188
1445,55.75,6.125,20.4375,-0.1870117,0.9873047,-0.06689453,0.4765625,-0.7368164,0.3344727
1446,47.375,6.6875,19.3125,-0.190918,1.049316,-0.07080078,0.4765625,-0.7368164,0.3344727
1447,35.5,8.5,15,-0.1713867,0.9604492,-0.05859375,0.4633789,-0.7397461,0.3266602
1448,31.125,10.375,12.25,-0.1630859,0.9101563,0.03173828,0.4658203,-0.7421875,0.3398438
1449,33.625,12.625,12.375,-0.21875,0.9257813,0.03173828,0.4658203,-0.7421875,0.3398438
1450,29.9375,13.0625,13.5625,-0.2705078,0.9951172,0.015625,0.4658203,-0.7421875,0.3344727
1451,18.375,13,12,-0.2348633,0.972168,-0.02734375,0.4658203,-0.7421875,0.3344727
1452,6.4375,16.4375,6.875,-0.1669922,0.8173828,-0.02734375,0.46875,-0.75,0.3476563
1453,15.8125,21,5.5625,-0.21875,0.6166992,-0.07470703,0.4741211,-0.7470703,0.3476563
1454,40.0625,21.625,10,-0.2148438,0.4814453,-0.03125,0.4741211,-0.7470703,0.3476563
1455,70.9375,24.8125,8.3125,-0.2109375,0.6552734,0.2373047,0.4580078,-0.7421875,0.3427734
1456,83.5625,20.875,13.625,-0.3305664,0.9179688,0.2451172,0.4580078,-0.7421875,0.3427734
1457,65.25,23.6875,17.3125,-0.3823242,1.11084,0.07519531,0.4580078,-0.7446289,0.3637695
1458,58.875,21.5625,23.125,-0.4975586,1.122559,0.07519531,0.4550781,-0.7421875,0.371582
1459,38.5,18.125,25.625,-0.3662109,1.064941,0.05126953,0.4550781,-0.7421875,0.371582
1460,30.3125,15.6875,26.25,-0.3583984,0.940918,-0.03125,0.4526367,-0.7470703,0.3662109
1461,15.1875,16.6875,29.4375,-0.3623047,0.921875,-0.007324219,0.449707,-0.7421875,0.3793945
1462,10.5,15.9375,28.9375,-0.3583984,0.8945313,-0.046875,0.449707,-0.7421875,0.3793945
1463,11.6875,14.9375,26.4375,-0.4179688,0.8330078,0.03564453,0.4526367,-0.75,0.3740234
1464,19.4375,14.125,28.125,-0.5014648,0.9682617,0.1225586,0.4526367,-0.75,0.3740234
