Packet number,Gyroscope X (deg/s),Gyroscope Y (deg/s),Gyroscope Z (deg/s),Accelerometer X (g),Accelerometer Y (g),Accelerometer Z (g),Magnetometer X (G),Magnetometer Y (G),Magnetometer Z (G)
114,69.1875,16.9375,131.9375,0.2143555,0.2802734,0.8852539,0.2924805,-0.2763672,-0.2045898
115,137.5,27.9375,123.0625,0.08691406,-0.05126953,1.296387,0.2924805,-0.3227539,-0.2094727
116,128.5,4.5625,123.125,0.08691406,-0.01660156,1.3125,0.3056641,-0.3481445,-0.2016602
117,116.1875,-27.6875,118.5625,0.07519531,0.01757813,1.39502,0.3056641,-0.3632813,-0.2177734
118,127.5625,-28.6875,156.4375,-0.4975586,-0.2485352,1.65625,0.3056641,-0.3632813,-0.2177734
119,136.125,-19.25,248.25,-0.07958984,0.06396484,1.320313,0.2978516,-0.3837891,-0.2202148
120,125.0625,-35.8125,234.25,-0.03564453,0.4619141,0.8022461,0.2978516,-0.3837891,-0.2202148
121,103,-58.6875,200.125,0.01953125,0.4697266,1.019531,0.2949219,-0.394043,-0.2148438
122,87.1875,-64.25,188.4375,-0.01171875,0.3305664,1.019531,0.2817383,-0.4248047,-0.2202148
123,57.5625,-17.375,231.6875,-0.3305664,0.1875,1.154297,0.2817383,-0.4248047,-0.2202148
124,51.9375,15.1875,264.0625,-0.1831055,0.2612305,0.984375,0.2739258,-0.4375,-0.2255859
125,53,22.4375,245.1875,0.08300781,0.3730469,0.7749023,0.2578125,-0.4477539,-0.2226563
126,50.4375,36.125,181.4375,0.04736328,0.3730469,0.6918945,0.2578125,-0.4477539,-0.2226563
127,57.625,38.1875,175.9375,-0.04003906,0.07177734,0.8378906,0.2685547,-0.4682617,-0.2148438
128,52.1875,35.375,199,-0.02392578,0.1953125,0.7075195,0.2685547,-0.4682617,-0.2148438
129,31.0625,24.3125,210.5625,0.02734375,0.3266602,0.6796875,0.2578125,-0.4760742,-0.2177734
130,-0.75,27.0625,211.6875,0.03515625,0.3305664,1.031738,0.2495117,-0.4887695,-0.2148438
131,-33,28.875,103.75,0.06738281,0.2260742,0.2963867,0.2495117,-0.4887695,-0.2148438
132,-52.125,7.5625,178.625,0.1030273,-0.01660156,0.6640625,0.2548828,-0.4912109,-0.2124023
133,-49.0625,-3.75,185.3125,0.1030273,0.3227539,0.972168,0.2548828,-0.4912109,-0.2124023
134,-48.9375,7.5,170.625,0.1308594,0.3110352,1.031738,0.2524414,-0.4887695,-0.1962891
135,-50.9375,21.4375,176.4375,0.05908203,0.2070313,1.05127,0.2441406,-0.4785156,-0.2202148
136,-35.625,19.875,190.875,0.1230469,0.1914063,1.086914,0.2441406,-0.4785156,-0.2202148
137,-22.9375,33.5,202.125,0.1625977,0.2802734,1.324219,0.2441406,-0.480957,-0.2148438
138,-30,53.75,191.875,0.222168,0.5893555,1.023926,0.2470703,-0.4838867,-0.2226563
139,-30.6875,47.9375,127.4375,0.3139648,0.3808594,1.193848,0.2470703,-0.4838867,-0.2226563
140,1.75,66.9375,109.875,0.09912109,0.1181641,1.233398,0.2285156,-0.480957,-0.2202148
141,17.6875,80.625,118.9375,0.03515625,0.1220703,1.003906,0.2285156,-0.480957,-0.2202148
142,14.9375,80,111.625,0.1586914,0.1259766,0.7788086,0.2578125,-0.4838867,-0.2202148
143,-3.875,64.0625,104.4375,0.1469727,0.1142578,0.7392578,0.2387695,-0.4887695,-0.2177734
144,5.125,53.5,88.5,0.1547852,-0.04003906,0.8144531,0.2387695,-0.4887695,-0.2177734
145,10.875,58.625,111.9375,0.1191406,-0.1557617,0.8774414,0.2470703,-0.5014648,-0.2177734
146,8.3125,59.75,132.125,0.2543945,-0.04736328,0.9013672,0.2470703,-0.5014648,-0.2177734
147,7.5,66.0625,133.6875,0.2739258,-0.06298828,0.8891602,0.2495117,-0.5043945,-0.2070313
148,2.0625,60.9375,113.3125,0.4970703,0.04833984,0.8496094,0.2578125,-0.5014648,-0.2016602
149,19.5625,28.875,39.6875,0.4013672,-0.7314453,0.715332,0.2578125,-0.5014648,-0.2016602
150,30.3125,30.0625,75.1875,0.3300781,-0.434082,1.193848,0.2578125,-0.5068359,-0.2045898
151,31,32.875,70.0625,0.3378906,-0.07470703,1.083008,0.2602539,-0.5092773,-0.2070313
152,22.875,38.5625,54.25,0.2978516,-0.1171875,1.09082,0.2602539,-0.5092773,-0.2070313
153,25.0625,43.5625,54.6875,0.2504883,-0.07861328,1.043457,0.2548828,-0.5170898,-0.2094727
154,30.375,53.125,53.8125,0.2265625,-0.01269531,1.071289,0.2548828,-0.5170898,-0.2094727
155,32.6875,63.9375,48.8125,0.2421875,0.001953125,1,0.2548828,-0.5170898,-0.2016602
156,32.75,70,39.5,0.2783203,0.07958984,0.972168,0.2739258,-0.5219727,-0.1962891
157,25.6875,81.875,31.5625,0.3139648,0.03320313,0.9604492,0.2739258,-0.5219727,-0.1962891
158,12.1875,87.6875,18.1875,0.4174805,-0.01660156,1.043457,0.2763672,-0.5297852,-0.2016602
159,5.5625,90.8125,12.3125,0.4135742,-0.1132813,1.094727,0.2763672,-0.5297852,-0.2016602
160,1.3125,97,43.4375,0.3100586,-0.3530273,1.086914,0.2817383,-0.5322266,-0.1962891
161,-44.5,62.8125,149.25,-0.5532227,-0.1982422,0.4941406,0.2924805,-0.534668,-0.1884766
162,-58.6875,23,204.9375,0.2265625,-0.008789063,1.335938,0.2924805,-0.534668,-0.1884766
163,-31.375,50.5625,183.5625,0.4453125,0.1914063,1.130371,0.2895508,-0.5375977,-0.1914063
164,-38.5,63.1875,141.125,0.3974609,0.1835938,1.118652,0.2871094,-0.5375977,-0.1884766
165,-29.6875,74.875,129.625,0.2143555,-0.03222656,1.047363,0.2871094,-0.5375977,-0.1884766
166,-19.125,65.25,138.875,0.234375,-0.0009765625,0.8696289,0.2788086,-0.534668,-0.1914063
167,-23.75,48.1875,135.125,0.2460938,0.137207,0.7866211,0.2788086,-0.534668,-0.1914063
168,-25.5625,32.375,139.125,0.1826172,0.04833984,0.7749023,0.2924805,-0.5400391,-0.1914063
169,-20.3125,19.125,156.375,0.1625977,-0.01660156,0.7944336,0.2788086,-0.5400391,-0.1884766
170,-20.9375,0.375,178.375,0.1904297,-0.07861328,0.7192383,0.2788086,-0.5400391,-0.1884766
171,-35.1875,-21.6875,200.125,0.3618164,0.07958984,0.6757813,0.2685547,-0.5449219,-0.1831055
172,-51.125,-49.4375,197.875,0.4174805,0.08349609,0.8339844,0.2685547,-0.5449219,-0.1831055
173,-58.25,-67,197.75,0.4414063,0.06396484,1.003906,0.2631836,-0.5375977,-0.2045898
174,-60.75,-77,203.1875,0.4291992,0.01757813,1.102539,0.2470703,-0.5449219,-0.2045898
175,-74.6875,-75.5625,208.9375,0.4692383,0.06396484,1.189941,0.2470703,-0.5449219,-0.2045898
176,-90.0625,-63.25,210.5,0.4848633,0.1645508,1.280762,0.2177734,-0.5400391,-0.2070313
177,-90,-41.5,200.875,0.5048828,0.137207,1.513672,0.2255859,-0.5297852,-0.2148438
179,-65.75,-9.875,188.5625,0.4614258,0.1567383,1.56543,0.2255859,-0.5297852,-0.2148438
180,-37,18.0625,173.875,0.4213867,0.1723633,1.569336,0.1987305,-0.5297852,-0.2148438
181,-9.875,45.4375,153.625,0.3496094,0.2260742,1.561035,0.1987305,-0.5297852,-0.2148438
182,9.6875,68.9375,140.375,0.2382813,0.2724609,1.482422,0.1933594,-0.5273438,-0.2202148
183,23.1875,77.375,134.5625,0.1347656,0.3652344,1.415039,0.1962891,-0.5249023,-0.2202148
184,32.375,77.4375,129.0625,0.04736328,0.3500977,1.478027,0.1962891,-0.5249023,-0.2202148
185,36.0625,71,125.25,-0.05566406,0.6049805,1.462402,0.2070313,-0.5400391,-0.2045898
186,37.5,65.375,107.5,-0.04394531,0.5546875,1.470215,0.2070313,-0.5400391,-0.2045898
187,38,61.3125,96.125,-0.1074219,0.546875,1.505859,0.2016602,-0.5322266,-0.2045898
188,39.4375,61.75,82.75,-0.1074219,0.5390625,1.501953,0.2016602,-0.5424805,-0.2070313
189,41.375,62.4375,67.375,-0.1352539,0.512207,1.407227,0.2016602,-0.5424805,-0.2070313
190,39.0625,58.1875,54.4375,-0.1074219,0.5239258,1.324219,0.1933594,-0.5527344,-0.2016602
191,26.8125,51.0625,41.875,-0.09130859,0.5390625,1.225098,0.2177734,-0.5551758,-0.2045898
192,7.9375,38.25,31.25,-0.06787109,0.4697266,1.189941,0.2177734,-0.5551758,-0.2045898
193,-8.625,30.5,25,-0.01171875,0.4155273,1.280762,0.2070313,-0.5629883,-0.1938477
194,-18.0625,32,20.875,0.07519531,0.3383789,1.316406,0.2070313,-0.5629883,-0.1938477
195,-20.5625,39.75,16,0.08300781,0.253418,1.29248,0.2148438,-0.5605469,-0.2070313
196,-19.4375,50.4375,12.4375,0.08300781,0.1796875,1.225098,0.2148438,-0.5551758,-0.1884766
197,-10.5,61.4375,8.0625,0.09912109,0.152832,1.114746,0.2148438,-0.5551758,-0.1884766
198,2.375,68.3125,4,0.08691406,0.1298828,0.9643555,0.2255859,-0.5551758,-0.2045898
199,14.75,68.375,3.5625,0.04736328,0.1259766,0.8183594,0.2255859,-0.5551758,-0.2045898
200,24.4375,61.25,6.1875,-0.0078125,0.1411133,0.6640625,0.2441406,-0.5605469,-0.2016602
201,28.625,47,8.5625,-0.02783203,0.1411133,0.5732422,0.2416992,-0.5527344,-0.1884766
202,27.5,28.625,10.75,-0.06347656,0.09472656,0.5966797,0.2416992,-0.5527344,-0.1884766
203,26.25,11.9375,13.375,-0.04785156,0.08349609,0.5732422,0.2441406,-0.5605469,-0.1938477
204,28.625,-1.125,19.125,-0.02783203,0.009765625,0.6049805,0.2441406,-0.5732422,-0.1806641
205,32.4375,-9.875,23.5,-0.0078125,-0.0009765625,0.5849609,0.2441406,-0.5732422,-0.1806641
206,28.6875,-19.1875,25,-0.01171875,0.06005859,0.5297852,0.2416992,-0.5605469,-0.1962891
207,7.75,-35.5625,24.625,-0.04003906,0.1489258,0.4428711,0.2416992,-0.5605469,-0.1962891
208,-24.6875,-63.125,24.625,-0.07958984,0.2148438,0.4189453,0.2470703,-0.5708008,-0.1914063
209,-55.0625,-90.6875,21.375,-0.07568359,0.2724609,0.5888672,0.2338867,-0.5708008,-0.1962891
210,-72.3125,-106.375,10.625,0.015625,0.2338867,0.8100586,0.2338867,-0.5708008,-0.1962891
211,-76.375,-100,-10.5625,0.06738281,0.2456055,1.015625,0.2255859,-0.5654297,-0.1962891
212,-86.6875,-64.4375,-58.625,0.1230469,0.3613281,1.173828,0.2255859,-0.5654297,-0.1962891
213,-74.375,-21.4375,-86.125,0.01953125,0.1992188,1.233398,0.2094727,-0.5605469,-0.2070313
214,-32.875,-7.6875,-96.3125,0.02734375,0.09082031,1.063477,0.2041016,-0.5551758,-0.2045898
215,-5,-8.9375,-103.625,0.0234375,0.03710938,0.8457031,0.2041016,-0.5551758,-0.2045898
216,-6.5,-14.4375,-106.625,0.08691406,-0.03222656,0.7788086,0.2124023,-0.5375977,-0.2124023
217,-12.125,-23.5625,-106.25,0.06298828,-0.05517578,0.7666016,0.2177734,-0.5400391,-0.2070313
218,-14.4375,-37.125,-98.25,0.1308594,-0.175293,0.7666016,0.2177734,-0.5400391,-0.2070313
219,-14.625,-47.75,-96.5625,0.2421875,-0.05126953,0.7192383,0.2148438,-0.5478516,-0.2148438
220,5.6875,-46.9375,-76.4375,0.2739258,-0.453125,0.9326172,0.2148438,-0.5478516,-0.2148438
221,24.375,-46.625,-47.0625,0.3696289,-0.4453125,0.9013672,0.2094727,-0.5322266,-0.2124023
222,35.75,-48.3125,-24.1875,0.4013672,-0.4301758,0.8261719,0.2177734,-0.550293,-0.2094727
223,30.75,-57.5,-4.8125,0.3774414,-0.3491211,0.7470703,0.2177734,-0.550293,-0.2094727
224,17.625,-74.75,13.125,0.3417969,-0.2446289,0.8144531,0.2016602,-0.5400391,-0.2177734
225,1.8125,-87.1875,28.9375,0.3100586,-0.175293,0.8696289,0.2016602,-0.5400391,-0.2177734
226,-16.1875,-92.9375,34.625,0.3217773,-0.04736328,0.9208984,0.1855469,-0.5478516,-0.2177734
227,-28.3125,-95.625,32.375,0.262207,-0.01269531,1.055176,0.1855469,-0.5375977,-0.2177734
228,-31.25,-92.0625,26.5625,0.2543945,0.009765625,1.079102,0.1855469,-0.5375977,-0.2177734
229,-31.5625,-89.875,22.4375,0.206543,-0.008789063,1.035645,0.1748047,-0.534668,-0.2148438
230,-39.75,-93.375,19.1875,0.1704102,0.03320313,0.9287109,0.1586914,-0.534668,-0.2202148
231,-48.3125,-106.5,12.375,0.1586914,0.1025391,0.8813477,0.1586914,-0.534668,-0.2202148
232,-49.8125,-121.3125,2.6875,0.1469727,0.1103516,0.9682617,0.1455078,-0.5322266,-0.2255859
233,49.9375,194.1875,-48.625,1.448242,0.3383789,6.450684,0.1455078,-0.5322266,-0.2255859
234,87.0625,191.6875,-182.25,0.4731445,0.5703125,-0.01513672,0.1484375,-0.5219727,-0.2255859
235,23.75,64.1875,-134.9375,-0.02392578,-0.07080078,0.5175781,0.1723633,-0.5219727,-0.2202148
236,-52,14.75,-36.9375,0.07910156,-0.2407227,1.039551,0.1723633,-0.5219727,-0.2202148
237,-69.25,-8.375,-4.75,0.2939453,0.1259766,1.122559,0.1884766,-0.5322266,-0.2094727
238,-59.875,-27,-11.1875,0.1943359,0.1259766,1.209473,0.1884766,-0.5322266,-0.2094727
239,-35.9375,-27.9375,-11.3125,0.03955078,0.09863281,1.276855,0.1801758,-0.5273438,-0.2255859
240,-21.4375,-23.4375,-10.4375,0.05517578,0.06396484,1.158203,0.1723633,-0.5170898,-0.2148438
241,-27.9375,-27,-18.375,0.1586914,0.1259766,1.102539,0.1723633,-0.5170898,-0.2148438
242,-47.5,-30.9375,-34.1875,0.1469727,0.1142578,1.158203,0.1801758,-0.5117188,-0.2202148
244,-63.0625,-37.0625,-46.625,0.09521484,0.01367188,1.169922,0.1777344,-0.5146484,-0.2255859
245,-68.875,-37.125,-52.625,0.09521484,-0.07470703,1.284668,0.1777344,-0.5146484,-0.2255859
246,-57.875,-23.125,-59.8125,0.1191406,-0.1210938,1.399414,0.1669922,-0.4912109,-0.2202148
247,-34.5,-8.4375,-67.5,0.1230469,-0.1479492,1.430664,0.1669922,-0.4912109,-0.2202148
248,-21,22.6875,-72.5625,0.07128906,-0.1674805,1.391113,0.1723633,-0.4941406,-0.2333984
249,-11.0625,41,-74.625,0.1625977,-0.2021484,1.367676,0.1748047,-0.4863281,-0.230957
250,3.375,72.9375,-82.1875,0.1586914,-0.2407227,1.332031,0.1748047,-0.4863281,-0.230957
251,12.9375,93.75,-76.0625,0.1469727,-0.2832031,1.304199,0.1884766,-0.480957,-0.2333984
252,6.3125,113.5625,-63.25,0.1865234,-0.2138672,1.154297,0.1884766,-0.480957,-0.2333984
253,-24.75,142.4375,-65.1875,0.2583008,-0.07080078,1.169922,0.2094727,-0.4863281,-0.2255859
254,-59.875,169.1875,-79,0.1826172,-0.05126953,1.134277,0.2177734,-0.4863281,-0.2358398
255,-73.8125,190.5,-99.8125,0.1469727,-0.008789063,1.094727,0.2177734,-0.4863281,-0.2358398
256,-65.4375,207.0625,-116.3125,0.2304688,-0.09375,1.296387,0.2470703,-0.4736328,-0.2280273
257,-28,214.0625,-123.25,0.465332,-0.1015625,1.458496,0.2788086,-0.4633789,-0.2202148
258,15.9375,184.625,-108,0.1865234,-0.3798828,1.304199,0.2788086,-0.4633789,-0.2202148
259,56.4375,41.6875,-55.375,0.1469727,-0.4223633,1.268555,0.3032227,-0.4633789,-0.2177734
260,76.625,-19.8125,-16.875,0.2304688,-0.05908203,1.023926,0.3032227,-0.4633789,-0.2177734
261,37.5,-18.4375,-8.625,0.1108398,0.06787109,1.086914,0.2949219,-0.4682617,-0.2202148
262,7.4375,-9.875,-13.5625,0.08691406,0.01757813,1.075195,0.2978516,-0.4736328,-0.2202148
263,4.5625,-2.25,-20.4375,0.07128906,0.009765625,1.197754,0.2978516,-0.4736328,-0.2202148
264,2.25,4.8125,-28.625,-0.02001953,0.01367188,1.134277,0.2978516,-0.4736328,-0.2226563
265,-6.4375,8,-33.25,0.01953125,0.1025391,1.035645,0.2978516,-0.4736328,-0.2226563
266,-20.1875,12,-39.375,-0.04785156,0.1103516,1.059082,0.2978516,-0.4682617,-0.2094727
267,-33,11.125,-48.125,-0.05957031,0.1875,1.09082,0.3032227,-0.4682617,-0.2148438
268,54,110.5,-57.8125,-0.07958984,0.001953125,1.158203,0.3032227,-0.4682617,-0.2148438
269,72.125,15.3125,-38.5625,-0.2426758,-0.07470703,1.003906,0.3110352,-0.4736328,-0.2202148
270,35.125,9.625,-9.8125,-0.2744141,0.1142578,0.7509766,0.3110352,-0.4838867,-0.2202148
271,-49.6875,-9.9375,-1.5625,-0.2070313,0.01367188,0.6640625,0.3110352,-0.4838867,-0.2202148
272,-70.4375,-17.125,5.1875,-0.1513672,-0.09375,0.9208984,0.3085938,-0.4736328,-0.2148438
273,-102.875,-19.125,3.3125,-0.05566406,-0.0009765625,1.071289,0.3085938,-0.4736328,-0.2148438
274,-117.0625,-17.625,-2.75,-0.03173828,-0.1518555,1.079102,0.3110352,-0.4682617,-0.2148438
275,-105.0625,-15.375,-8.4375,0.02734375,-0.159668,1.229492,0.3056641,-0.4506836,-0.2148438
276,-81.6875,-9.9375,-14.3125,0.04345703,-0.1787109,1.185547,0.3056641,-0.4506836,-0.2148438
277,-52.125,-6.0625,-22.0625,0.04345703,-0.1557617,1.14209,0.3110352,-0.4404297,-0.2226563
278,-21.375,-6.4375,-29.6875,0.03515625,-0.1787109,1.20166,0.3110352,-0.4404297,-0.2226563
279,5.375,-6.0625,-31.3125,-0.01611328,-0.2485352,1.071289,0.3085938,-0.4428711,-0.2226563
280,31,-8.25,-28.4375,-0.02392578,-0.2138672,1.122559,0.3110352,-0.4272461,-0.2226563
281,50.875,-10.0625,-25.875,-0.02783203,-0.1557617,1.075195,0.3110352,-0.4272461,-0.2226563
282,59.375,-11.6875,-28.4375,-0.00390625,-0.1015625,1.015625,0.3188477,-0.4404297,-0.230957
283,59.3125,-13.75,-32.5,-0.00390625,-0.05517578,1.035645,0.3056641,-0.4375,-0.2177734
284,51.9375,-15.8125,-33.8125,-0.02783203,-0.02441406,1.003906,0.3056641,-0.4375,-0.2177734
285,39.4375,-18.3125,-29.5625,-0.00390625,-0.01660156,0.9604492,0.3085938,-0.4506836,-0.2226563
286,37.875,-20.75,-21.8125,-0.02001953,-0.2060547,1.09082,0.3085938,-0.4506836,-0.2226563
287,63,-23.5,-15.6875,0.007324219,-0.2832031,1.067383,0.3110352,-0.4506836,-0.2255859
288,86.875,-23.5625,-18.6875,0.09082031,-0.1865234,1.086914,0.3110352,-0.453125,-0.2202148
289,84.375,-20.375,-27.75,0.1308594,-0.04003906,1.007813,0.3110352,-0.453125,-0.2202148
290,55.9375,-19.1875,-32.4375,0.1269531,-0.0009765625,0.9130859,0.2949219,-0.4707031,-0.2202148
291,15.5,-21.875,-26.25,0.06298828,0.01367188,0.8813477,0.2949219,-0.4707031,-0.2202148
292,-20.125,-24.6875,-18.3125,0.07910156,-0.004882813,1,0.300293,-0.4682617,-0.2226563
293,-34.625,-25.0625,-15.25,0.07910156,-0.09375,1.114746,0.3032227,-0.4707031,-0.2124023
294,-28.75,-22.0625,-17.125,0.1347656,-0.1635742,1.079102,0.3032227,-0.4707031,-0.2124023
295,-14.375,-19.875,-17.625,0.1508789,-0.2138672,1.126465,0.300293,-0.4682617,-0.2226563
296,2.5,-17.875,-16.1875,0.222168,-0.2524414,1.126465,0.2978516,-0.4555664,-0.2148438
297,13,-15.9375,-13.1875,0.2421875,-0.1982422,1.130371,0.2978516,-0.4555664,-0.2148438
298,13.4375,-15.9375,-9.4375,0.234375,-0.1787109,1.102539,0.2841797,-0.4580078,-0.2226563
299,10.8125,-16.9375,-7.9375,0.1865234,-0.175293,1.086914,0.2841797,-0.4580078,-0.2226563
300,10.1875,-17.4375,-11.4375,0.1904297,-0.1557617,1.134277,0.2871094,-0.4707031,-0.2280273
301,11,-17.6875,-17.375,0.1748047,-0.109375,1.189941,0.2895508,-0.4609375,-0.2124023
302,14.1875,-18.125,-25.125,0.1625977,-0.08251953,1.20166,0.2895508,-0.4609375,-0.2124023
303,17.25,-18.5625,-30.125,0.1547852,-0.06689453,1.213379,0.2949219,-0.4633789,-0.2280273
304,15.5,-17.4375,-30.8125,0.1469727,-0.04394531,1.268555,0.2949219,-0.4633789,-0.2280273
305,9.25,-15.375,-28.5625,0.1386719,-0.04736328,1.276855,0.2817383,-0.4760742,-0.2333984
306,1.0625,-13.5,-23.875,0.1069336,-0.04736328,1.324219,0.2871094,-0.4609375,-0.2226563
307,-4.1875,-13.6875,-17.5,0.07910156,-0.06298828,1.308105,0.2871094,-0.4609375,-0.2226563
309,-3.3125,-15,-13.9375,0.01123047,-0.09375,1.359863,0.2895508,-0.4633789,-0.2226563
310,1.75,-16.8125,-12.4375,0,-0.04003906,1.34375,0.2924805,-0.4580078,-0.2202148
311,4.5625,-20.125,-10.3125,0.03125,-0.02050781,1.316406,0.2924805,-0.4580078,-0.2202148
312,6.3125,-25.625,-7.75,0.01953125,0.005859375,1.320313,0.2788086,-0.4633789,-0.2202148
313,10.125,-31.375,-8,0.05126953,0.005859375,1.296387,0.2788086,-0.4633789,-0.2202148
314,12.5625,-35.75,-9.375,0.08691406,0.04443359,1.308105,0.2841797,-0.4555664,-0.2280273
315,12.9375,-37.625,-9.75,0.1108398,0.03710938,1.375488,0.2739258,-0.4658203,-0.2226563
316,11.125,-36.625,-7.5,0.09912109,0.1259766,1.379395,0.2739258,-0.4658203,-0.2226563
317,7.5,-32.5625,-2.875,0.1069336,0.1411133,1.355957,0.2685547,-0.4707031,-0.2280273
318,2.9375,-27.6875,2.375,0.1108398,0.1142578,1.442871,0.2685547,-0.4707031,-0.2280273
319,-0.4375,-21.0625,8,0.2104492,0.1025391,1.418945,0.265625,-0.4785156,-0.2255859
320,-3,-13.8125,11.9375,0.1987305,0.1411133,1.458496,0.2631836,-0.4760742,-0.2280273
321,-2,-6.75,13.1875,0.1865234,0.1142578,1.462402,0.2631836,-0.4760742,-0.2280273
322,2.8125,-1.625,15.25,0.1191406,0.08740234,1.418945,0.2578125,-0.4658203,-0.2358398
323,7.8125,1.125,17.75,0.08691406,0.08740234,1.39502,0.2578125,-0.4736328,-0.2333984
324,10.625,0.5,20.8125,0.05517578,0.07958984,1.335938,0.2578125,-0.4736328,-0.2333984
325,10.875,-3.6875,22.3125,0.07128906,0.1025391,1.233398,0.2578125,-0.4682617,-0.2333984
326,9.3125,-10.5625,22.125,0.08691406,0.152832,1.217285,0.2578125,-0.4682617,-0.2333984
327,3.5,-18.4375,24,0.1069336,0.1450195,1.146484,0.2631836,-0.4707031,-0.2333984
328,-3.4375,-25.4375,26.5,0.1108398,0.152832,1.181641,0.2602539,-0.4707031,-0.2280273
329,-8.375,-30.3125,27.625,0.08691406,0.1489258,1.146484,0.2602539,-0.4707031,-0.2280273
330,-11.9375,-32.5,27.1875,0.1030273,0.152832,1.150391,0.2470703,-0.4785156,-0.230957
331,-27.875,-51.75,45.6875,0.1069336,-0.04394531,0.7788086,0.2470703,-0.4785156,-0.230957
332,-23.4375,-37.125,51.6875,0.2739258,-0.0009765625,1.498047,0.2470703,-0.4785156,-0.2358398
333,28.625,-28.4375,34.375,0.1586914,0.01367188,1.209473,0.2363281,-0.4760742,-0.2358398
334,51.8125,-26.25,24.125,0.1625977,0.009765625,1.146484,0.2363281,-0.4760742,-0.2358398
335,54.4375,-19.9375,21,0.2143555,0.152832,1.122559,0.230957,-0.4760742,-0.2412109
336,22.0625,-30.3125,5.6875,0.4013672,0.1992188,0.8579102,0.2255859,-0.4760742,-0.2280273
337,2.375,-24.0625,0.625,0.3139648,0.06787109,1.150391,0.2255859,-0.4760742,-0.2280273
338,16.375,-17.8125,-4.625,0.2421875,0.06396484,1.05127,0.2338867,-0.4838867,-0.2226563
339,22.5625,-14.375,-12.5,0.06298828,0.1259766,1.067383,0.2338867,-0.4838867,-0.2226563
340,13.0625,-10,-25,-0.02783203,0.1914063,1.047363,0.230957,-0.4912109,-0.2333984
341,-4.125,-9.5625,-24.5625,-0.04003906,0.08740234,0.984375,0.2148438,-0.4941406,-0.2333984
342,-7.875,-11.1875,-2.0625,-0.01611328,-0.05908203,1,0.2148438,-0.4941406,-0.2333984
343,-0.9375,-12.3125,16.0625,0.1787109,-0.02050781,0.9960938,0.2338867,-0.480957,-0.2333984
344,10.25,-13.25,16.8125,0.3618164,0.03320313,1.007813,0.2338867,-0.480957,-0.2333984
345,16.5625,-12.5625,-0.9375,0.4770508,0.09082031,1.027832,0.2231445,-0.4887695,-0.2387695
346,12.5625,-13.9375,-23.5,0.4135742,0.1411133,0.9804688,0.2148438,-0.4912109,-0.2280273
347,7.75,-15.0625,-35.6875,0.2104492,0.168457,0.8891602,0.2148438,-0.4912109,-0.2280273
348,4.125,-10.75,-39.1875,0.1308594,0.1259766,1.067383,0.2231445,-0.4838867,-0.2358398
349,-5.375,-18.0625,-40.25,0.06298828,0.1914063,0.9526367,0.2202148,-0.4838867,-0.2333984
350,-17.5,-41.5,-3.9375,0.003417969,-0.1328125,0.9526367,0.2202148,-0.4838867,-0.2333984
351,-10.3125,-13.875,27.625,0.1865234,-0.004882813,1.355957,0.2148438,-0.4863281,-0.2255859
352,4.8125,-9.6875,15.875,0.1748047,0.1411133,0.8974609,0.2148438,-0.4863281,-0.2255859
353,-1,-6.9375,-4.1875,0.1704102,0.06396484,1.019531,0.2202148,-0.496582,-0.2436523
354,-8.375,-2,-6.875,0.1108398,0.02929688,1.09082,0.2124023,-0.4838867,-0.2358398
355,-8.75,0.625,-1.6875,0.06298828,0.02539063,1.118652,0.2124023,-0.4838867,-0.2358398
356,-3.3125,1.125,2.0625,0.03955078,0.01367188,1.098633,0.2094727,-0.480957,-0.230957
357,1,2.6875,2.0625,0.0234375,0.02929688,1.063477,0.2094727,-0.480957,-0.230957
358,-0.8125,0.9375,-0.25,-0.01171875,0.07568359,0.9682617,0.2177734,-0.4912109,-0.2358398
359,-6.9375,-4.875,-6.25,0.0234375,0.203125,0.8852539,0.2177734,-0.4863281,-0.230957
360,-29.75,-18.25,-16.25,0.04736328,0.1762695,0.8339844,0.2177734,-0.4863281,-0.230957
361,-53,-20.1875,-6.375,0.1269531,0.04443359,1.015625,0.2070313,-0.4887695,-0.2333984
362,-50.625,-23,12,0.2661133,-0.04736328,1.05127,0.2177734,-0.4760742,-0.2387695
363,-29.0625,-20.3125,20.25,0.3579102,-0.1132813,1.134277,0.2177734,-0.4760742,-0.2387695
364,-11.25,-17.375,13.3125,0.4052734,-0.09765625,1.162109,0.2094727,-0.4785156,-0.2358398
365,-2.5,-13.8125,2.75,0.4013672,-0.125,1.083008,0.2094727,-0.4785156,-0.2358398
366,-1.375,-10.5,-1.25,0.3339844,-0.01269531,1.083008,0.2094727,-0.4736328,-0.2358398
367,2.9375,-12.0625,-2.875,0.2661133,0.07177734,1.106934,0.2041016,-0.4682617,-0.2436523
368,3.3125,-11.5,-3.1875,0.2304688,0.09472656,1.122559,0.2041016,-0.4682617,-0.2436523
369,0.5625,-9,6.4375,0.1826172,0.08740234,1.225098,0.2041016,-0.4760742,-0.230957
370,2.4375,-7.9375,12.5,0.2822266,0.06005859,1.169922,0.2041016,-0.4760742,-0.230957
371,3.1875,-12.625,18.75,0.2460938,-0.02441406,1.134277,0.2041016,-0.4760742,-0.230957
372,0.75,-15.4375,16.5,0.3100586,0.02539063,1.122559,0.2016602,-0.4736328,-0.2412109
374,-3,-15.5625,5.6875,0.2739258,-0.008789063,1.05127,0.2016602,-0.4736328,-0.2412109
375,0.75,-17.3125,2.75,0.206543,-0.05908203,1.130371,0.2016602,-0.4736328,-0.2412109
376,2.625,-18.625,4.875,0.2421875,-0.04394531,1.134277,0.1987305,-0.480957,-0.2358398
377,0.5625,-20.75,5.8125,0.3017578,0.009765625,1.189941,0.1987305,-0.480957,-0.2358398
378,-4.625,-23.125,4.1875,0.2700195,0.06787109,1.086914,0.1987305,-0.480957,-0.2358398
379,-23,-23.875,-7.1875,0.3178711,0.137207,1.059082,0.1987305,-0.480957,-0.2358398
380,-38.5,-24.3125,-13.8125,0.3535156,0.05615234,1.11084,0.1884766,-0.4760742,-0.2412109
381,-40.0625,-22.8125,-11.0625,0.3735352,-0.01269531,1.14209,0.1884766,-0.4760742,-0.2412109
382,-30.5625,-19.375,-6.0625,0.3256836,-0.05517578,1.130371,0.1884766,-0.4760742,-0.2412109
383,-20.375,-13.625,-6.625,0.3139648,-0.0009765625,1.233398,0.1801758,-0.4682617,-0.2412109
384,-8.6875,-0.625,-37.125,0.2783203,0.02148438,1.209473,0.1801758,-0.4682617,-0.2412109
385,0.1875,6.5,-31,0.1230469,-0.1635742,1.3125,0.1801758,-0.4682617,-0.2412109
386,7.375,15.1875,-12.875,0.08691406,-0.1132813,1.375488,0.1748047,-0.4658203,-0.246582
387,11.75,24.375,-9.5625,0.1625977,0.005859375,1.411133,0.1748047,-0.4658203,-0.246582
388,11.8125,30,-13.3125,0.1625977,0.03710938,1.34375,0.1748047,-0.4658203,-0.246582
389,6,31.375,-15.875,0.222168,0.06005859,1.375488,0.1855469,-0.4707031,-0.2358398
390,1.9375,31.5625,-15.875,0.2182617,0.005859375,1.316406,0.1855469,-0.4707031,-0.2358398
391,0.6875,29,-14.3125,0.1547852,-0.008789063,1.324219,0.1855469,-0.4707031,-0.2358398
392,4,24.375,-10.8125,0.1147461,-0.03222656,1.300293,0.1855469,-0.4707031,-0.2358398
393,10.125,16.8125,-6.0625,0.09521484,-0.05908203,1.241211,0.2016602,-0.4555664,-0.2436523
394,19.4375,12.0625,-3.4375,0.1230469,0.02539063,1.249023,0.2016602,-0.4555664,-0.2436523
395,27.125,7.6875,-12.8125,0.1508789,0.009765625,1.29248,0.2016602,-0.4555664,-0.2436523
396,39.1875,4.25,-12.375,0.1030273,0.001953125,1.272949,0.2016602,-0.4682617,-0.2333984
397,45,0.5,-11.25,0.1191406,0.05224609,1.209473,0.2016602,-0.4682617,-0.2333984
398,35.25,-6,-16.0625,0.1704102,0.1333008,1.083008,0.2016602,-0.4682617,-0.2333984
399,15.375,-14.125,-17.375,0.1748047,0.07568359,1.055176,0.2094727,-0.4785156,-0.2412109
400,4.8125,-18.9375,-9.875,0.1625977,0.02929688,1.079102,0.2094727,-0.4785156,-0.2412109
401,-4.1875,-9.375,-32.125,0.222168,0.3383789,0.9326172,0.2094727,-0.4785156,-0.2412109
402,-3,-13,-43.125,0.03515625,0.09472656,1.015625,0.2070313,-0.4838867,-0.2358398
403,-10.5625,-14.625,-21.25,0,-0.07861328,0.984375,0.2070313,-0.4838867,-0.2358398
404,-18.8125,-14.3125,-1.5,0.1269531,-0.03222656,0.9960938,0.2070313,-0.4838867,-0.2358398
405,-17.5,-10.625,-8.8125,0.234375,0.1259766,1.031738,0.2070313,-0.4838867,-0.2358398
406,-14.0625,-4.625,-30.75,0.2104492,0.168457,1.035645,0.2016602,-0.4682617,-0.2412109
407,-12.625,-0.375,-36.375,0.1269531,0.02929688,1.027832,0.2016602,-0.4682617,-0.2412109
408,-10.875,2.0625,-20.8125,0.1547852,-0.05517578,1.023926,0.2016602,-0.4682617,-0.2412109
409,-10.8125,4.5,-4.4375,0.2026367,-0.02441406,1,0.2016602,-0.4736328,-0.2387695
410,-11.5625,7.3125,0.8125,0.222168,-0.01269531,1,0.2016602,-0.4736328,-0.2387695
411,-11.6875,11.375,-1.875,0.2939453,-0.02050781,1.05127,0.2016602,-0.4736328,-0.2387695
412,-8.875,15.0625,-7.625,0.2939453,0.005859375,1.05127,0.2124023,-0.4633789,-0.2387695
413,0.4375,17.875,-15.5,0.3300781,-0.06298828,1.067383,0.2124023,-0.4633789,-0.2387695
414,17.625,18.9375,-19.5625,0.2661133,-0.07861328,1.05127,0.2124023,-0.4633789,-0.2387695
415,36.9375,17.9375,-17.5625,0.2304688,-0.08984375,1.019531,0.2041016,-0.4760742,-0.230957
416,51.25,15.6875,-11.625,0.2026367,-0.06689453,0.984375,0.2041016,-0.4760742,-0.230957
417,56.125,11.4375,-6.5625,0.1625977,-0.03222656,0.9287109,0.2124023,-0.4760742,-0.2333984
418,52.5,6.375,-5.5625,0.1586914,0.001953125,0.9052734,0.2124023,-0.4760742,-0.2333984
419,43.8125,2.9375,-8.125,0.1787109,0.06005859,0.9130859,0.2094727,-0.480957,-0.2412109
420,31.875,0.0625,-13.625,0.1625977,0.09472656,0.9130859,0.2070313,-0.4863281,-0.2387695
421,17.875,-3.3125,-19.25,0.1826172,0.07958984,0.8417969,0.2070313,-0.4863281,-0.2387695
422,5.75,-6.75,-19.875,0.1987305,0.1064453,0.8735352,0.2094727,-0.4887695,-0.2358398
423,-2.6875,-7.3125,-14.375,0.2543945,0.07177734,0.9169922,0.2202148,-0.496582,-0.2333984
424,-9.4375,-6.1875,-7.3125,0.3100586,0.05615234,0.9326172,0.2202148,-0.496582,-0.2333984
425,-14.6875,-4.25,-3.1875,0.3378906,0.04833984,0.956543,0.2124023,-0.4785156,-0.2280273
426,-17,-0.1875,-5.375,0.3579102,0.04443359,0.9526367,0.2124023,-0.4785156,-0.2280273
427,-14.5625,3.4375,-9.6875,0.3378906,0.05224609,1.003906,0.2124023,-0.4887695,-0.230957
428,-10.25,8.0625,-10.6875,0.2739258,0.01757813,0.9804688,0.2255859,-0.4912109,-0.2387695
429,-7.8125,8.25,-4.9375,0.2900391,0.02539063,0.8100586,0.2255859,-0.4912109,-0.2387695
430,-53.4375,-6.875,-7.5,0.6123047,-0.125,1.154297,0.2148438,-0.4838867,-0.2358398
431,-39.4375,-4.75,7.375,0.2382813,-0.01660156,1.158203,0.2148438,-0.4838867,-0.2358398
432,-28.1875,6.375,3.4375,0.1547852,0.07568359,1.079102,0.2070313,-0.4887695,-0.2333984
433,-16.375,5.875,-5.0625,0.2104492,0.04101563,1.079102,0.2124023,-0.4707031,-0.2358398
434,-14.875,7.5,-6.5,0.2026367,-0.02441406,1.102539,0.2124023,-0.4707031,-0.2358398
435,-17.5625,12.75,1.25,0.2939453,-0.1054688,1.177734,0.2202148,-0.4682617,-0.2358398
436,-9.6875,8.5,15.5625,0.2382813,-0.1132813,1.146484,0.2124023,-0.4633789,-0.2436523
437,4.4375,4.4375,26.1875,0.3139648,-0.1362305,1.150391,0.2124023,-0.4633789,-0.2436523
439,18.625,-2.125,31.375,0.222168,-0.1328125,1.177734,0.2124023,-0.4682617,-0.2387695
440,27.25,-4,32.3125,0.2382813,-0.09375,1.169922,0.2124023,-0.4682617,-0.2387695
441,23.1875,-4.9375,25.125,0.2939453,-0.03613281,1.268555,0.2202148,-0.4707031,-0.230957
442,21.25,-5.25,20.6875,0.2583008,-0.01660156,1.249023,0.2148438,-0.4707031,-0.2490234
443,13.9375,-3.0625,14.4375,0.2143555,0.04443359,1.339844,0.2148438,-0.4707031,-0.2490234
444,3.3125,19.375,-26.0625,0.4375,-0.03222656,1.335938,0.2148438,-0.4838867,-0.2358398
445,20.1875,7.875,-66.1875,0.1943359,-0.1401367,1.335938,0.2148438,-0.4838867,-0.2358398
446,0.6875,13.8125,-41.5,0.2104492,0.09472656,1.466309,0.2094727,-0.4760742,-0.230957
447,52.6875,6.9375,-38.375,0.1943359,0.3110352,1.027832,0.2124023,-0.4760742,-0.2412109
448,-9.25,16.4375,-23.375,0.1347656,-0.1171875,1.415039,0.2124023,-0.4760742,-0.2412109
449,12.625,17.6875,-1.5625,0.1787109,-0.01660156,1.29248,0.2255859,-0.4912109,-0.230957
450,5.3125,17.375,11.8125,0.1269531,0.02539063,1.256836,0.2202148,-0.4760742,-0.230957
451,-3,13.8125,2.625,0.1469727,0.1333008,1.181641,0.2202148,-0.4760742,-0.230957
452,-10.6875,10.1875,4.625,0.2182617,0.08349609,1.217285,0.2285156,-0.4785156,-0.2358398
453,-21.4375,7.25,21.5,0.2265625,0.1835938,1.166016,0.2285156,-0.4785156,-0.2358398
454,-49.1875,1.25,19.3125,0.1943359,0.1992188,1.256836,0.2285156,-0.4887695,-0.230957
455,-58.3125,0.5625,19.8125,0.2504883,0.1489258,1.280762,0.2231445,-0.4785156,-0.2436523
456,-48.8125,-3.875,10.5,0.2583008,0.1333008,1.245117,0.2231445,-0.4785156,-0.2436523
457,-18.125,-0.3125,19.5625,0.1347656,0.1298828,1.300293,0.2177734,-0.4682617,-0.2387695
458,-34.3125,-4.4375,4.0625,0.06738281,-0.0009765625,1.616699,0.2177734,-0.4682617,-0.2387695
459,-10.5,-6.1875,1.4375,0.1508789,0.09472656,1.40332,0.2177734,-0.4682617,-0.2412109
460,3.6875,-4.625,1.4375,0.1508789,0.1450195,1.399414,0.2148438,-0.453125,-0.2358398
461,-7.0625,11.9375,4.5625,0.4052734,0.2685547,1.916992,0.2148438,-0.453125,-0.2358398
462,-16.5625,5.4375,13.375,0.2265625,0.1835938,1.339844,0.2124023,-0.4658203,-0.2358398
463,-18.3125,9.75,16.8125,0.1469727,0.2070313,1.280762,0.2285156,-0.4609375,-0.2333984
464,-23.625,0.75,13.3125,0.05126953,0.2070313,1.169922,0.2285156,-0.4609375,-0.2333984
465,-26.625,-7.875,15.75,0.01953125,0.152832,1.14209,0.2255859,-0.4609375,-0.2490234
466,-27.1875,-19.0625,23.4375,-0.05957031,0.02929688,1.059082,0.2255859,-0.4609375,-0.2490234
467,-47.875,-55.0625,107.4375,-0.4057617,0.08740234,1.233398,0.2148438,-0.4555664,-0.2333984
468,-60.625,-52.625,110.8125,0.05126953,0.1875,1.114746,0.2124023,-0.4555664,-0.2490234
469,-24.75,-51.6875,66.6875,0.3457031,0.07568359,1.083008,0.2124023,-0.4555664,-0.2490234
470,18.1875,-48.875,42.5,0.1625977,-0.08251953,1.039551,0.2016602,-0.4609375,-0.2412109
471,14.0625,-31.75,36.5,0.3496094,0.1220703,1.25293,0.2016602,-0.4609375,-0.2412109
472,9.1875,-27.875,28.625,0.1586914,0.05224609,1.047363,0.2070313,-0.4506836,-0.2519531
473,19.75,-22.375,31.125,0.2543945,0.005859375,0.9287109,0.1987305,-0.4633789,-0.2490234
474,22.6875,-17.25,26.4375,0.2978516,-0.01269531,0.9526367,0.1987305,-0.4633789,-0.2490234
475,23.0625,-8.125,12.375,0.3579102,0.05615234,0.9365234,0.1962891,-0.4555664,-0.2490234
476,16.6875,-1.8125,-4.5,0.234375,0.07177734,0.9130859,0.1855469,-0.4580078,-0.2387695
477,13.375,5.125,-6.4375,0.1308594,0.1333008,0.9169922,0.1855469,-0.4580078,-0.2387695
478,13.4375,14.25,-4.125,0.07128906,0.07958984,0.8891602,0.1855469,-0.4682617,-0.2436523
479,14.0625,22.6875,-7,0.1308594,0.001953125,0.8696289,0.1855469,-0.4682617,-0.2436523
480,10.625,27.5,-11.25,0.1469727,-0.0009765625,0.8457031,0.1962891,-0.4609375,-0.2568359
481,3.9375,30.5625,-12.625,0.2421875,0.07177734,0.8222656,0.190918,-0.4609375,-0.2436523
482,1.875,28.9375,-15.5,0.2661133,0.06396484,0.8022461,0.190918,-0.4609375,-0.2436523
483,-0.125,23.125,-14.9375,0.2382813,0.1025391,0.7509766,0.2070313,-0.4760742,-0.2412109
484,-6.75,20.75,-12.375,0.2304688,0.04833984,0.8300781,0.2070313,-0.4760742,-0.2412109
485,-8.1875,19.3125,-4.875,0.2265625,-0.0009765625,0.8100586,0.2070313,-0.4760742,-0.2490234
486,-12.5625,17.75,-4.875,0.2460938,-0.02050781,0.8535156,0.2016602,-0.4658203,-0.2436523
487,-10.375,20.0625,-6.125,0.2265625,-0.05908203,0.8930664,0.2016602,-0.4658203,-0.2436523
488,4.0625,40.6875,-11.1875,0.2900391,-0.1171875,1.027832,0.2124023,-0.4658203,-0.2436523
489,-4.4375,34.3125,-0.125,0.2182617,-0.07080078,0.9169922,0.2070313,-0.4609375,-0.2358398
490,0.6875,43.5625,-1.5625,0.2265625,-0.05126953,0.8061523,0.2070313,-0.4609375,-0.2358398
491,-8.0625,40.125,0.8125,0.2861328,-0.03222656,0.9169922,0.2285156,-0.4633789,-0.2436523
492,-9.8125,43.3125,4.9375,0.2583008,0.01757813,0.9604492,0.2285156,-0.4633789,-0.2436523
493,-11.0625,47.3125,9.9375,0.3256836,0.02148438,0.940918,0.2285156,-0.4555664,-0.2358398
494,-15.9375,48.375,10.8125,0.2143555,0.009765625,0.9604492,0.2285156,-0.4555664,-0.2436523
495,-17.75,50.1875,14.3125,0.222168,-0.01269531,0.9448242,0.2285156,-0.4555664,-0.2436523
496,-14.4375,50,16.625,0.2739258,-0.09375,0.9760742,0.230957,-0.4477539,-0.2387695
497,-2.5625,51.9375,15.375,0.222168,-0.109375,1.106934,0.230957,-0.4477539,-0.2387695
498,-13.25,47.3125,9.5625,0.1108398,0.02539063,0.9526367,0.2255859,-0.4580078,-0.2333984
499,-18.0625,38.1875,-1.5625,0.1469727,-0.004882813,1,0.2470703,-0.453125,-0.2358398
500,-18.0625,35.875,-5.3125,0.08300781,0.01757813,1.063477,0.2470703,-0.453125,-0.2358398
501,-14.125,36.25,-6.6875,0.2026367,-0.08251953,1.075195,0.2548828,-0.4477539,-0.2358398
502,-10.25,35.625,-5.8125,0.2861328,-0.09375,1.122559,0.2548828,-0.453125,-0.2333984
504,-12,36.6875,-5.375,0.2939453,-0.04736328,1.126465,0.2548828,-0.453125,-0.2333984
505,-13.6875,39.9375,-1.875,0.222168,0.02929688,1.126465,0.2602539,-0.4477539,-0.2333984
506,-9.5,46.1875,2.8125,0.1987305,-0.07080078,1.20166,0.2602539,-0.4477539,-0.2333984
507,-10.4375,48.0625,2.125,0.1826172,0.009765625,1.20166,0.2578125,-0.4428711,-0.2333984
508,-5.125,51.5625,0.5625,0.1943359,-0.0009765625,1.237305,0.2685547,-0.4453125,-0.2255859
509,-3.6875,54.5,0.8125,0.1704102,0.005859375,1.268555,0.2685547,-0.4453125,-0.2255859
510,0.0625,57.875,-1.3125,0.2504883,-0.02441406,1.339844,0.2739258,-0.4506836,-0.2387695
511,7.6875,57.75,2,0.2421875,-0.02050781,1.284668,0.2739258,-0.4506836,-0.2387695
512,8.75,54.25,3.0625,0.2104492,0.01367188,1.339844,0.2739258,-0.453125,-0.2333984
513,7.125,49,5.125,0.1904297,0.001953125,1.304199,0.2895508,-0.4506836,-0.2333984
514,10.4375,43.125,15.3125,0.2583008,-0.06298828,1.371582,0.2895508,-0.4506836,-0.2333984
515,13.6875,37.5625,28.375,0.1469727,-0.1557617,1.415039,0.2924805,-0.4428711,-0.2280273
516,14.8125,32.0625,40.5625,-0.0078125,-0.01269531,1.375488,0.2949219,-0.4453125,-0.230957
517,15.0625,25.6875,33.4375,-0.01611328,0.02148438,1.379395,0.2949219,-0.4453125,-0.230957
518,13.125,18.6875,26.125,0.02734375,0.06005859,1.387207,0.2978516,-0.4477539,-0.2280273
519,9.875,11.8125,25.625,0.1147461,0.03710938,1.387207,0.2978516,-0.4477539,-0.2280273
520,-2,1.9375,25.3125,0.06738281,0.07177734,1.407227,0.2949219,-0.4633789,-0.2280273
521,-27.1875,-16.1875,18.0625,-0.1948242,0.02539063,1.43457,0.2924805,-0.4555664,-0.2255859
522,-27.9375,-28.625,5.8125,-0.394043,0.1181641,1.375488,0.2924805,-0.4555664,-0.2255859
523,-42.6875,-41,-15.8125,-1.48877,0.09082031,1.035645,0.2841797,-0.4580078,-0.2333984
524,-32.6875,-31.6875,-43.9375,-1.556152,0.1333008,2.422852,0.2841797,-0.4580078,-0.2333984
525,34.625,7.5,-7.4375,0.6958008,-1.021484,2.466309,0.2788086,-0.4506836,-0.2255859
526,51.5,57.6875,79.75,0.7475586,-0.109375,0.8378906,0.2949219,-0.4453125,-0.2226563
527,-31.6875,-7.375,7.4375,0.8554688,0.203125,0.9604492,0.2949219,-0.4453125,-0.2226563
528,-44.1875,-26.875,46.1875,-0.9873047,-0.8706055,1.869629,0.300293,-0.453125,-0.2255859
529,3.6875,-11.875,66.4375,-0.5532227,-0.0009765625,1.517578,0.2817383,-0.4506836,-0.2333984
530,11.0625,-4.4375,46.625,0.09082031,-0.1479492,1.391113,0.2817383,-0.4506836,-0.2333984
531,3.4375,-5.3125,6.125,0,-0.2021484,1.300293,0.2841797,-0.4555664,-0.230957
532,1.75,-6.125,0.375,-0.04785156,-0.008789063,1.249023,0.2841797,-0.4555664,-0.230957
533,7.3125,-5.5,-3.3125,-0.0078125,0.001953125,1.181641,0.2763672,-0.4580078,-0.2280273
534,10.625,-6.625,-3.0625,-0.04003906,-0.07861328,1.296387,0.2788086,-0.4580078,-0.230957
535,12.875,-10.0625,0.125,0.08300781,-0.03613281,1.138184,0.2788086,-0.4580078,-0.230957
536,13.9375,-14.4375,4,-0.01171875,0.009765625,1.11084,0.2788086,-0.453125,-0.230957
537,10.4375,-18.625,5.5625,-0.05566406,0.02148438,1.083008,0.2788086,-0.453125,-0.230957
538,10.1875,-18.375,1.9375,-0.09570313,0.06005859,1.122559,0.2871094,-0.4580078,-0.2202148
539,15.9375,-17.4375,-5.625,-0.1391602,-0.004882813,1.114746,0.2895508,-0.4682617,-0.2358398
540,19.375,-15.375,-2.125,-0.09130859,-0.04394531,1.086914,0.2895508,-0.4682617,-0.2358398
541,25.6875,-9.6875,-10.5625,-0.01171875,-0.06689453,1.169922,0.2841797,-0.4633789,-0.2358398
542,33.75,-1.625,-25.1875,-0.03173828,-0.07861328,1.130371,0.2841797,-0.4609375,-0.2280273
543,39.4375,7.3125,-35.0625,-0.01171875,-0.05517578,1.162109,0.2841797,-0.4609375,-0.2280273
544,38.1875,12.25,-35,-0.1391602,-0.008789063,1.106934,0.2924805,-0.4682617,-0.230957
545,37,12.4375,-23.9375,-0.09130859,-0.01660156,1.075195,0.2924805,-0.4682617,-0.230957
546,38.4375,12.125,-21.9375,-0.02392578,0.01367188,1.075195,0.2871094,-0.4658203,-0.2280273
547,38.0625,11.5,-25.8125,-0.1113281,-0.03222656,1.098633,0.2871094,-0.4785156,-0.2255859
548,36.5,10.9375,-34.8125,-0.1630859,-0.008789063,1.043457,0.2871094,-0.4785156,-0.2255859
549,37.875,11.4375,-41.3125,-0.1113281,0.06005859,1.09082,0.2871094,-0.4785156,-0.2226563
550,41.8125,11.125,-45.6875,-0.05957031,0.04101563,1.043457,0.2871094,-0.4785156,-0.2226563
551,41.8125,8.5625,-45.5,-0.06787109,0.02539063,1.003906,0.2841797,-0.4863281,-0.2280273
552,44.5625,8.4375,-36.5,-0.05175781,-0.06298828,0.9960938,0.2895508,-0.4863281,-0.2226563
553,47.625,10.125,-24.4375,-0.02001953,-0.02441406,0.9448242,0.2895508,-0.4863281,-0.2226563
554,42.1875,9.1875,-16.3125,0.05908203,-0.02441406,0.9130859,0.2978516,-0.480957,-0.2124023
555,38.0625,9,-16.625,0.09521484,0.05224609,0.9487305,0.2841797,-0.4912109,-0.2124023
556,34.125,12.4375,-22.4375,0.1108398,-0.01660156,0.9169922,0.2841797,-0.4912109,-0.2124023
557,24.4375,16,-37.8125,0.01953125,-0.04736328,0.8891602,0.2978516,-0.4887695,-0.2255859
558,18.5,16.625,-45,0.08300781,-0.04003906,0.8852539,0.2978516,-0.4887695,-0.2255859
559,5.5625,13.375,-53.6875,0.06298828,0.02539063,0.8378906,0.3032227,-0.5043945,-0.2177734
560,-4.25,12.1875,-55,0.0234375,0.01367188,0.7866211,0.3056641,-0.5014648,-0.2177734
561,-12.375,13.9375,-58.6875,0.1191406,-0.05908203,1.083008,0.3056641,-0.5014648,-0.2177734
562,2,15.9375,-42.8125,0.1748047,-0.03222656,0.9326172,0.2978516,-0.4941406,-0.2177734
563,-11.0625,9.1875,-34.9375,0.0234375,-0.02050781,0.9208984,0.2978516,-0.4941406,-0.2177734
564,-18.5625,6.3125,-28.5625,0.05517578,-0.0009765625,0.9526367,0.3032227,-0.4912109,-0.2226563
565,-31.5,3.1875,-18.5625,0.01123047,-0.02832031,0.9326172,0.3110352,-0.4887695,-0.2226563
566,-33.75,2,-2.75,0.07910156,-0.01269531,0.9248047,0.3110352,-0.4887695,-0.2226563
567,-42.125,-3.25,9.5625,0.1108398,-0.125,0.940918,0.3188477,-0.480957,-0.2226563
569,-46.1875,-2.0625,21.0625,0.03955078,-0.144043,1.098633,0.3085938,-0.4760742,-0.2148438
570,-43,-0.3125,32.75,0.1269531,-0.09375,1.079102,0.3085938,-0.4760742,-0.2148438
571,-42.5625,-1.625,46.5,0.02734375,-0.1328125,1.063477,0.3139648,-0.4760742,-0.2226563
572,-42.125,-4.4375,64.5,-0.02783203,-0.09375,1.083008,0.3139648,-0.4760742,-0.2226563
573,-42.375,-7.1875,84.25,-0.02392578,-0.159668,1.150391,0.3085938,-0.4707031,-0.2226563
574,-36.625,-9.1875,99.875,0.06298828,-0.09375,1.158203,0.3056641,-0.4760742,-0.2255859
575,-37.1875,-9.6875,104.75,0.206543,-0.1362305,1.169922,0.3056641,-0.4760742,-0.2255859
576,-31.4375,-9.1875,110.125,0.1469727,-0.09765625,1.154297,0.2949219,-0.4760742,-0.2177734
577,-27.75,-11.75,106.1875,0.1904297,-0.04003906,1.20166,0.2949219,-0.4760742,-0.2177734
578,-21.1875,-10.625,90.0625,0.2543945,-0.09765625,1.280762,0.2978516,-0.4736328,-0.2226563
579,-18.125,-5.125,73.1875,0.1308594,-0.159668,1.268555,0.2949219,-0.4736328,-0.2255859
580,-14.75,0,59.9375,0.1469727,-0.1713867,1.205566,0.2949219,-0.4736328,-0.2255859
581,-4.0625,5.5625,34.125,0.1625977,-0.144043,1.197754,0.2895508,-0.4658203,-0.2226563
582,-2.4375,6,23.4375,0.06738281,-0.1865234,1.241211,0.2841797,-0.4682617,-0.2255859
583,-1,3.9375,14.8125,0.04345703,-0.159668,1.268555,0.2841797,-0.4682617,-0.2255859
584,-4.75,2.6875,5.5625,0.06738281,-0.1674805,1.316406,0.2949219,-0.4760742,-0.230957
585,-2.75,0.9375,0.5625,0.06298828,-0.1479492,1.288574,0.2949219,-0.4760742,-0.230957
586,-6.0625,-0.3125,1.0625,0.1425781,-0.159668,1.3125,0.300293,-0.4707031,-0.2202148
587,-5.3125,-2.6875,1.6875,0.05908203,-0.07470703,1.391113,0.2841797,-0.4682617,-0.230957
588,-3.0625,-3.5625,2.125,0.1704102,-0.05517578,1.383301,0.2841797,-0.4682617,-0.230957
589,-2,-2.5,-0.9375,0.06298828,-0.04003906,1.351563,0.2924805,-0.4707031,-0.2280273
590,-0.875,-2.1875,-3.625,0.07910156,-0.03613281,1.335938,0.2924805,-0.4707031,-0.2280273
591,1.75,-0.875,2.4375,-0.00390625,-0.03222656,1.355957,0.2924805,-0.4707031,-0.2333984
592,5,1.375,4.1875,0.1030273,-0.01660156,1.407227,0.2949219,-0.4760742,-0.2280273
593,8.375,4.25,-2.3125,0.03955078,-0.07080078,1.367676,0.2949219,-0.4760742,-0.2280273
594,9.1875,8.1875,-7.0625,0.04736328,-0.05517578,1.371582,0.2949219,-0.4707031,-0.230957
595,12.4375,11.6875,-11.875,0.07128906,-0.05908203,1.3125,0.2895508,-0.4736328,-0.230957
596,14.4375,14.5625,-8.6875,0.03125,-0.03613281,1.34375,0.2895508,-0.4736328,-0.230957
597,17.75,19,-1.875,0.04736328,0.02929688,1.272949,0.2949219,-0.4736328,-0.2280273
598,18,21.9375,-0.3125,0.05517578,-0.01660156,1.3125,0.2949219,-0.4736328,-0.2280273
599,20.75,24.75,0.1875,-0.04785156,0.01367188,1.284668,0.2949219,-0.4736328,-0.2226563
600,18.125,26.5625,-6.4375,0.05517578,0.05615234,1.332031,0.2949219,-0.4863281,-0.2255859
601,13.6875,28.8125,-15.5625,0.01123047,0.08349609,1.249023,0.2949219,-0.4863281,-0.2255859
602,8.25,29.625,-10.25,-0.01611328,0.1181641,1.29248,0.2978516,-0.480957,-0.2148438
603,0.375,29.1875,-2.0625,-0.04003906,0.1298828,1.320313,0.2978516,-0.480957,-0.2148438
604,-6.875,30.25,2.125,-0.09960938,0.1103516,1.300293,0.2978516,-0.480957,-0.2280273
605,-7.9375,30.625,6.5,-0.1391602,0.06005859,1.071289,0.3139648,-0.4760742,-0.2202148
606,-10,31.125,15.25,-0.07958984,0.02539063,1.237305,0.3139648,-0.4760742,-0.2202148
607,-5.5,30.5,29.6875,0.04736328,-0.02441406,1.166016,0.3032227,-0.4736328,-0.2124023
608,4.9375,32.375,50.125,0.2143555,-0.04394531,1.14209,0.3056641,-0.480957,-0.2255859
609,6.125,33.1875,67.6875,0.3696289,-0.008789063,1.079102,0.3056641,-0.480957,-0.2255859
610,2.75,35.9375,65.4375,0.4770508,0.1025391,1.015625,0.3085938,-0.4887695,-0.2045898
611,-15.4375,30.6875,60.5625,0.262207,0.1298828,0.5415039,0.3085938,-0.4887695,-0.2045898
612,-10.5625,22.625,94.125,0.1665039,0.5390625,2.533691,0.3139648,-0.4863281,-0.2177734
613,-44.5,9.5625,18.625,-0.5732422,-0.05908203,1.146484,0.3085938,-0.4887695,-0.2226563
614,-50.875,-1.8125,44.5625,-0.1152344,0.2260742,1.20166,0.3085938,-0.4887695,-0.2226563
615,-46,-16.125,69.8125,-0.6767578,0.1606445,0.984375,0.3085938,-0.4760742,-0.2177734
616,-86.8125,-79.375,277.875,-1.321289,0.253418,1.320313,0.3085938,-0.4760742,-0.2177734
617,-26.8125,-35.1875,375.6875,-0.3105469,0.152832,1.209473,0.300293,-0.4736328,-0.2226563
618,-27.625,-41.25,218.9375,0.3100586,0.3808594,0.699707,0.2895508,-0.5014648,-0.2255859
619,-41.5625,-21.375,9.875,0.2382813,0.1835938,0.7983398,0.2895508,-0.5014648,-0.2255859
620,-50.4375,-1.625,-18.25,-0.1870117,0.07177734,0.8300781,0.2709961,-0.4887695,-0.2280273
621,-33.375,-10.9375,9.0625,-0.2705078,0.1259766,1.260742,0.2871094,-0.4736328,-0.230957
622,-29.125,8.625,0.125,-0.3662109,0.137207,1.229492,0.2871094,-0.4736328,-0.230957
623,-19.875,21.375,-5.75,-0.3500977,0.05615234,1.221191,0.2871094,-0.4785156,-0.2333984
624,-13.75,28.125,-11.75,-0.2226563,0.06396484,1.14209,0.2871094,-0.4785156,-0.2333984
625,-10.25,25.625,-8.1875,-0.1831055,0.06787109,1,0.2895508,-0.4707031,-0.2280273
626,-14.5,13.9375,-0.625,-0.190918,0.1298828,1.023926,0.2949219,-0.4707031,-0.230957
627,-26.25,-10.625,13.5625,-0.07958984,0.01367188,0.8774414,0.2949219,-0.4707031,-0.230957
628,-9.9375,-31.375,41,-0.1713867,0.07568359,1.383301,0.2871094,-0.4736328,-0.2226563
629,-31.1875,-18.5625,29.9375,-0.2109375,0.08740234,0.972168,0.2871094,-0.4736328,-0.2226563
630,-29.8125,-15.5625,11.375,0.1191406,-0.1328125,1.055176,0.2895508,-0.4609375,-0.2280273
631,-33.75,-7.6875,10.8125,0.1826172,-0.2329102,1.027832,0.2817383,-0.4580078,-0.2333984
632,-30,-3.6875,21.9375,0.2504883,-0.125,0.9804688,0.2817383,-0.4580078,-0.2333984
634,-33.75,-6.8125,23.125,-0.03564453,-0.09375,0.9604492,0.2895508,-0.4658203,-0.2280273
635,-29.3125,-4.625,28.875,-0.246582,-0.008789063,0.9960938,0.2763672,-0.4633789,-0.230957
636,-14.4375,-0.75,19.9375,-0.03173828,-0.1479492,0.984375,0.2763672,-0.4633789,-0.230957
637,-8.4375,5.25,11.75,0.07910156,-0.1015625,1.05127,0.2817383,-0.4555664,-0.2255859
638,-1.875,19.4375,11.5,0.2460938,-0.1865234,1.05127,0.2817383,-0.4555664,-0.2255859
639,-4.25,13.9375,14.4375,0.07519531,-0.125,1.015625,0.2817383,-0.4580078,-0.2280273
640,-5.125,1.9375,22.25,0,-0.109375,1.059082,0.2788086,-0.4477539,-0.230957
641,-0.125,-1.25,30,0.1347656,-0.09765625,1.114746,0.2788086,-0.4477539,-0.230957
642,-1,2.125,24.375,0.1665039,0.005859375,1.138184,0.2788086,-0.4658203,-0.2333984
643,-1.625,11.375,14.625,0.1508789,-0.1943359,0.9921875,0.2788086,-0.4658203,-0.2333984
644,-7.125,5.1875,12.125,0.1987305,-0.1132813,1,0.2871094,-0.4633789,-0.230957
645,-5.8125,7.125,4.5625,0.1030273,-0.1943359,0.984375,0.2895508,-0.4580078,-0.2333984
646,-4.125,3.9375,3.0625,0.02734375,-0.1943359,0.9604492,0.2895508,-0.4580078,-0.2333984
647,-7.1875,-2.4375,11.625,-0.2587891,-0.2138672,0.9604492,0.2709961,-0.4555664,-0.2412109
648,-23,27.6875,59.8125,-1.058594,-0.2060547,1.229492,0.2924805,-0.4580078,-0.230957
649,-7.0625,24.25,21.5625,0.2939453,-0.1518555,1.213379,0.2924805,-0.4580078,-0.230957
650,-35.8125,33,24.1875,-0.1591797,-0.1362305,1.213379,0.2871094,-0.4609375,-0.2280273
651,-29,18.3125,25.3125,-0.07568359,-0.06689453,1.249023,0.2871094,-0.4609375,-0.2280273
652,-39.5625,35.3125,31.1875,-0.1035156,-0.3413086,1.39502,0.2788086,-0.4506836,-0.2280273
653,-34.375,47.1875,46.8125,0.01953125,-0.1674805,1.391113,0.2871094,-0.4506836,-0.2280273
654,-7.375,41.875,35.4375,0.3774414,-0.1171875,1.272949,0.2871094,-0.4506836,-0.2280273
655,-6.3125,31.125,39.25,0.4291992,-0.2714844,1.150391,0.2924805,-0.4477539,-0.2280273
656,-21.625,10.5,42.875,0.2783203,-0.175293,1.031738,0.2924805,-0.4477539,-0.2280273
657,-15.3125,12.5,45.8125,0.6005859,-0.144043,1.193848,0.2895508,-0.4453125,-0.2226563
658,-1.3125,14.6875,26.9375,0.6401367,-0.06298828,1.134277,0.2949219,-0.4453125,-0.2255859
659,0.5625,7.1875,22.625,0.5048828,-0.2021484,1.059082,0.2949219,-0.4453125,-0.2255859
660,-10.6875,-3.6875,21.875,0.07128906,-0.09765625,0.972168,0.2949219,-0.4453125,-0.2255859
661,-23.3125,-12.8125,26.625,0.01953125,-0.1054688,1.14209,0.3056641,-0.4633789,-0.2226563
662,-21.375,-8.0625,26.3125,0.1826172,-0.1674805,1.320313,0.3056641,-0.4633789,-0.2226563
663,-17.1875,4.6875,26.3125,0.2304688,-0.1557617,1.296387,0.3056641,-0.4633789,-0.2226563
664,-19.1875,1.3125,24.0625,0.0234375,-0.125,1.264648,0.3056641,-0.4633789,-0.2226563
665,-19.75,0.9375,22.125,-0.02783203,-0.08251953,1.351563,0.300293,-0.4428711,-0.2280273
666,-14.25,-0.6875,22.125,-0.1196289,-0.1328125,1.308105,0.300293,-0.4428711,-0.2280273
667,-12.75,-8.5,25.4375,-0.230957,-0.1132813,1.173828,0.300293,-0.4428711,-0.2280273
668,-7.5,-9.125,28.75,-0.1391602,-0.1328125,1.233398,0.2895508,-0.4428711,-0.2255859
669,4.125,-7.8125,37,-0.1669922,-0.159668,1.217285,0.2895508,-0.4428711,-0.2255859
670,14.75,-2.9375,43.375,-0.2788086,-0.1635742,1.351563,0.2895508,-0.4428711,-0.2255859
671,22.8125,6.875,32.5,0.01953125,-0.1401367,1.268555,0.2895508,-0.453125,-0.2280273
672,29.875,16.625,25.5625,-0.1313477,-0.07861328,1.162109,0.2895508,-0.453125,-0.2280273
673,28.75,13.75,15.25,-0.1196289,-0.07080078,1.162109,0.2895508,-0.453125,-0.2280273
674,25.25,12.9375,10.1875,-0.09130859,-0.09765625,1.14209,0.2871094,-0.4428711,-0.2358398
675,22.875,4.3125,3.5625,-0.3105469,-0.01269531,1.134277,0.2871094,-0.4428711,-0.2358398
676,7.5,-10.625,-14.0625,-0.3305664,0.005859375,1.233398,0.2871094,-0.4428711,-0.2358398
677,-4.875,-19.1875,-20.5625,-0.2983398,-0.06689453,1.335938,0.2871094,-0.4428711,-0.2358398
678,-12.0625,-20.3125,-23,-0.4140625,-0.05126953,1.300293,0.2924805,-0.4633789,-0.2177734
679,-17.75,-23.6875,-26.125,-0.3066406,0.009765625,1.332031,0.2924805,-0.4633789,-0.2177734
680,-12.875,-17.1875,-25.8125,-0.2866211,-0.004882813,1.324219,0.2924805,-0.4633789,-0.2177734
681,-5.25,-13.8125,-25.25,-0.2944336,-0.03222656,1.25293,0.2871094,-0.4555664,-0.2333984
682,0.9375,-5.25,-22.8125,-0.2626953,-0.09375,1.320313,0.2871094,-0.4555664,-0.2333984
683,10.875,10.625,-18.25,-0.3422852,-0.1557617,1.14209,0.2871094,-0.4555664,-0.2333984
684,21.75,25.1875,-14.25,-0.2705078,-0.09375,1.11084,0.2895508,-0.4506836,-0.2358398
685,24.9375,22,-20.4375,-0.3183594,-0.09765625,1.043457,0.2895508,-0.4506836,-0.2358398
686,22.0625,17.6875,-15.4375,-0.3540039,-0.2060547,1.007813,0.2895508,-0.4506836,-0.2358398
687,20.25,13.5,-12.5625,-0.4853516,-0.1289063,0.9960938,0.2949219,-0.4506836,-0.2333984
688,8.9375,10.125,-23.1875,-0.449707,-0.05517578,1.086914,0.2949219,-0.4506836,-0.2333984
689,8.75,8.875,-39.25,-0.1713867,0.06396484,0.8930664,0.2949219,-0.4506836,-0.2333984
690,-0.625,-19.625,-42.75,-0.855957,0.06396484,0.8535156,0.2949219,-0.4506836,-0.2333984
691,-322.75,-303.6875,-255.1875,4.114746,2.614258,-1.790039,0.2978516,-0.4633789,-0.2280273
692,-182.125,-41.5625,-214.5,-0.7880859,-2.841309,4.498047,0.2978516,-0.4633789,-0.2280273
693,33.9375,35.625,-84.8125,0.9667969,-1.875,0.1108398,0.2978516,-0.4633789,-0.2280273
694,9.5,-35.6875,-32.875,0.3818359,-0.1015625,0.7709961,0.2788086,-0.4121094,-0.2568359
695,-7.1875,-25.5,-10.5,0.5727539,0.3500977,1.189941,0.2788086,-0.4121094,-0.2568359
696,21.125,6.3125,-62.5,0.4931641,0.04833984,1.284668,0.2788086,-0.4121094,-0.2568359
697,14.3125,-1.625,-68.125,0.4013672,-0.1674805,1.086914,0.2841797,-0.409668,-0.2333984
699,14.25,-9.9375,-56.625,0.6044922,-0.05908203,1.035645,0.2841797,-0.409668,-0.2333984
700,18.9375,-13.375,-24.9375,0.5131836,-0.2368164,1.106934,0.2841797,-0.409668,-0.2333984
701,21.3125,-2.25,13.25,0.1665039,-0.3066406,1.09082,0.2817383,-0.4223633,-0.2387695
702,37.375,4.6875,30.625,0.07519531,-0.2021484,1.019531,0.2817383,-0.4223633,-0.2387695
703,53.875,10.9375,36.375,0.1030273,-0.1054688,0.8774414,0.2685547,-0.4145508,-0.2358398
704,68.75,16.5625,41.5,0.1826172,-0.1171875,0.7749023,0.2685547,-0.4145508,-0.2358398
705,77.25,25.4375,42.0625,0.1308594,-0.1557617,0.8457031,0.2739258,-0.4301758,-0.2333984
706,102,36.375,45.0625,0.1147461,-0.1401367,0.984375,0.2788086,-0.4428711,-0.2387695
707,96.875,46.25,45.875,0.03125,-0.1171875,0.9643555,0.2788086,-0.4428711,-0.2387695
708,98.25,54.5,47.5,0.01123047,-0.1289063,0.9487305,0.2763672,-0.4506836,-0.2280273
709,80,53.0625,44.9375,0.1308594,-0.1210938,1,0.2924805,-0.4658203,-0.230957
710,29.875,79.3125,49.3125,0.2026367,0.02929688,0.7548828,0.2924805,-0.4658203,-0.230957
711,27.375,67.875,31.5625,0.1865234,-0.04003906,1.36377,0.2924805,-0.4736328,-0.2280273
712,60.8125,54.375,24.5,0.01953125,-0.05908203,1.20166,0.2924805,-0.4736328,-0.2280273
713,64.375,50.375,39.75,-0.1791992,-0.1479492,1.173828,0.2949219,-0.4785156,-0.2202148
714,75.8125,50.3125,65.5,-0.3261719,-0.05908203,1.217285,0.3032227,-0.480957,-0.2255859
715,55.1875,36.9375,70.125,-0.3261719,0.1025391,1.059082,0.3032227,-0.480957,-0.2255859
716,31.25,29.8125,62.25,-0.06787109,0.2685547,1.217285,0.2978516,-0.4941406,-0.2255859
717,13,26.8125,1.0625,-0.05957031,-0.03222656,1.359863,0.2978516,-0.4941406,-0.2255859
718,33,31.4375,19.5625,0.3061523,-0.1289063,1.122559,0.3032227,-0.4912109,-0.2202148
719,30.75,24.375,28.625,0.04345703,-0.2563477,1.150391,0.3110352,-0.4990234,-0.2177734
720,36.0625,28.25,40.5,-0.07958984,-0.1865234,1.189941,0.3110352,-0.4990234,-0.2177734
721,29.375,48.8125,12.625,-0.5253906,-0.08984375,0.671875,0.3056641,-0.5014648,-0.2148438
722,16.8125,6.5,18.0625,0.05126953,-0.1713867,1.063477,0.3085938,-0.5068359,-0.2045898
723,8.25,5.625,27.75,0.05908203,-0.01660156,1.027832,0.3085938,-0.5068359,-0.2045898
724,5.4375,-7.375,35.375,-0.1831055,-0.1362305,1.138184,0.3032227,-0.5170898,-0.2045898
725,3.9375,-13.4375,39.625,-0.2744141,-0.109375,1.055176,0.3032227,-0.5170898,-0.2045898
726,1.5,-42.4375,44.4375,-0.4814453,-0.2753906,1.466309,0.3110352,-0.5117188,-0.2148438
727,4.75,-35.875,72.375,-0.07177734,0.2802734,1.308105,0.300293,-0.5219727,-0.2016602
728,-6.4375,-38.9375,55.1875,-0.3422852,-0.07080078,0.8100586,0.300293,-0.5219727,-0.2016602
729,-16.0625,-40,44.8125,-0.6166992,0.1489258,1.482422,0.2978516,-0.5146484,-0.2070313
730,-22.375,-41.0625,53.5,0.3378906,-0.1132813,1.019531,0.2978516,-0.5146484,-0.2070313
731,-11.9375,-37.8125,99.25,1.309082,0.1489258,1.984375,0.2895508,-0.5297852,-0.2255859
732,-23.375,-40.0625,40.375,0.04736328,-0.2714844,1.14209,0.2841797,-0.5170898,-0.2070313
733,-2.625,-40,87.75,0.262207,0.1835938,1.446777,0.2841797,-0.5170898,-0.2070313
734,-13.875,-38.5,47.25,-0.2270508,-0.1054688,0.8974609,0.2709961,-0.5219727,-0.2124023
735,12.5625,-40.6875,76.9375,-0.1430664,-0.2021484,1.458496,0.2631836,-0.5249023,-0.2148438
736,22,-54.0625,141.125,-0.3779297,-0.2563477,1.399414,0.2631836,-0.5249023,-0.2148438
737,20.5625,-24.4375,36.875,0.3457031,0.3227539,0.7709961,0.2685547,-0.5273438,-0.2148438
738,15.875,-42.75,63.0625,-0.05175781,-0.1132813,1.122559,0.2685547,-0.5273438,-0.2148438
739,13.0625,-40.0625,60.25,-0.1713867,-0.09375,1.055176,0.2495117,-0.5273438,-0.2177734
740,6.625,-44.875,53.6875,-0.21875,-0.09375,1.09082,0.2578125,-0.534668,-0.2070313
741,0.6875,-46.625,54.875,-0.06787109,-0.04736328,1.221191,0.2578125,-0.534668,-0.2070313
742,-9.625,-45.5,61.375,-0.09960938,-0.06689453,1.264648,0.2441406,-0.5449219,-0.2226563
743,-13.625,-46.75,71.25,-0.1152344,-0.1557617,1.328125,0.2441406,-0.5449219,-0.2226563
744,-14.875,-39.1875,67.3125,-0.03173828,-0.05517578,1.29248,0.2285156,-0.5375977,-0.2255859
745,-16.75,-35.5,59.1875,0,-0.07080078,1.158203,0.2177734,-0.5322266,-0.2202148
746,-15.875,-34.5625,53.75,0.06298828,-0.04736328,1.130371,0.2177734,-0.5322266,-0.2202148
747,-16.1875,-32.875,39.0625,0.003417969,-0.05126953,1.083008,0.2094727,-0.5249023,-0.2226563
748,-14.1875,-29.125,30.625,-0.1313477,-0.1362305,1,0.2148438,-0.5375977,-0.2202148
749,-8.5,-30.625,63.6875,-0.175293,-0.1787109,1.086914,0.2148438,-0.5375977,-0.2202148
750,-4.3125,-24.1875,29.8125,0.09082031,-0.05126953,1.043457,0.2070313,-0.5297852,-0.2280273
751,0.8125,-23.4375,30,-0.07958984,-0.06298828,1.11084,0.2070313,-0.5297852,-0.2280273
752,2.875,-20.875,26.3125,0.09912109,0.03320313,1.209473,0.2070313,-0.5424805,-0.2255859
753,7.125,-19.875,17.5625,-0.01611328,-0.02050781,1.304199,0.1987305,-0.5273438,-0.2255859
754,19.0625,-16.3125,2.0625,0.01953125,-0.1401367,1.328125,0.1987305,-0.5273438,-0.2255859
755,31.125,-12.5,-1.75,-0.01611328,-0.1479492,1.308105,0.1962891,-0.5322266,-0.2226563
756,25.4375,-10.9375,55.1875,-0.1552734,0.01367188,1.272949,0.1962891,-0.5322266,-0.2226563
757,33,-12.625,19.8125,0.1069336,0.1606445,1.320313,0.1962891,-0.5375977,-0.2148438
758,25.625,-7.9375,3.875,0.1704102,0.203125,1.268555,0.1933594,-0.550293,-0.2202148
759,2.625,-3.875,9.875,0,0.3305664,1.25293,0.1933594,-0.550293,-0.2202148
760,-16.125,-2.3125,15.375,0.03515625,0.4116211,1.217285,0.1855469,-0.550293,-0.2255859
761,-38.625,-3.625,23.4375,0.01953125,0.5351563,1.166016,0.1855469,-0.5449219,-0.2202148
762,-48.375,-7,15.3125,-0.09570313,0.3847656,1.185547,0.1855469,-0.5449219,-0.2202148
764,-79.1875,21.9375,-9.25,-0.2148438,0.2998047,0.8774414,0.1933594,-0.5297852,-0.2226563
765,-49.1875,-7.75,-7,-0.1669922,-0.01269531,1.189941,0.1933594,-0.5297852,-0.2226563
766,-26.0625,-13.5625,7.4375,-0.2866211,-0.1401367,1.217285,0.190918,-0.5297852,-0.2280273
767,-4.9375,-17.9375,17.3125,-0.1669922,-0.1328125,1.25293,0.1884766,-0.5170898,-0.2255859
768,2.1875,-17.0625,14.9375,0.1108398,0.02539063,1.158203,0.1884766,-0.5170898,-0.2255859
769,1.6875,-13,-0.625,0.2583008,0.1333008,1.158203,0.1831055,-0.5322266,-0.2333984
770,-3.25,-7.1875,-11.375,0.2543945,0.2260742,1.197754,0.1831055,-0.5322266,-0.2333984
771,-15.125,-2.25,-25.25,0.3496094,0.237793,1.185547,0.1777344,-0.5322266,-0.230957
772,-30.125,8.1875,-29.9375,0.1030273,0.21875,1.185547,0.1831055,-0.534668,-0.2255859
773,-25.25,6.875,-28.125,0.04736328,0.168457,1.181641,0.1831055,-0.534668,-0.2255859
774,-15.375,10.75,-25.3125,-0.3144531,0.02929688,1.043457,0.1831055,-0.5219727,-0.2358398
775,-23.0625,8.8125,3.9375,-0.5292969,-0.05908203,1.162109,0.1831055,-0.5092773,-0.2358398
776,-5.9375,5.6875,7.1875,-0.04394531,-0.02441406,1.146484,0.1831055,-0.5092773,-0.2358398
777,-13.9375,13.375,9.6875,0.2143555,0.1645508,1.086914,0.1855469,-0.5117188,-0.2358398
778,-35.875,17,18.375,0.2460938,0.3540039,1.075195,0.1855469,-0.5117188,-0.2358398
779,-45,18.25,5.0625,0.06298828,0.1875,1.098633,0.190918,-0.5170898,-0.2387695
780,-42,14,2.625,-0.2348633,0.01367188,0.9169922,0.2041016,-0.5014648,-0.2333984
781,-33,21.3125,23.9375,-0.1274414,-0.09765625,1.067383,0.2041016,-0.5014648,-0.2333984
782,-23.25,16.5,15.1875,0.1147461,-0.1171875,1.146484,0.190918,-0.5068359,-0.2280273
783,-15.8125,25.5,17.5,-0.07958984,-0.3178711,1.36377,0.190918,-0.5068359,-0.2280273
784,6.9375,19.0625,22.875,0,-0.03613281,1.067383,0.1933594,-0.496582,-0.2358398
785,15.75,24.5625,13.125,-0.1552734,-0.08251953,1.304199,0.2041016,-0.5092773,-0.2358398
786,90.375,42.5,11.25,-0.3862305,-0.01660156,0.2373047,0.2041016,-0.5092773,-0.2358398
787,3.5,4.5625,25.875,0.6362305,0.1914063,1.324219,0.2070313,-0.5092773,-0.2412109
788,19.8125,22.875,15.5,0.3579102,0.1567383,1.173828,0.1962891,-0.5170898,-0.2333984
789,14.4375,20.6875,12.375,0.015625,0.1914063,1.007813,0.1962891,-0.5170898,-0.2333984
790,8.6875,13.875,5.1875,-0.190918,0.1103516,1.015625,0.2016602,-0.5117188,-0.2280273
791,3.9375,14.25,19.1875,0.0234375,0.06787109,1.063477,0.2016602,-0.5117188,-0.2280273
792,2.0625,13.625,13.375,0.1665039,0.01757813,1.05127,0.1987305,-0.5146484,-0.2333984
793,7.5,14.6875,8.125,0.07519531,-0.1674805,1.059082,0.2041016,-0.5297852,-0.2280273
794,15.0625,13.5,9.6875,-0.01611328,-0.2250977,1.079102,0.2041016,-0.5297852,-0.2280273
795,23.0625,14.625,6.1875,0.07910156,-0.2216797,1.071289,0.2070313,-0.5146484,-0.2226563
796,28.5625,16.25,5.625,0.06738281,-0.1826172,1.055176,0.2070313,-0.5146484,-0.2226563
797,31.4375,17.125,3.5,0.02734375,-0.09375,1,0.2041016,-0.5249023,-0.2280273
798,28.125,15.4375,2.25,-0.06347656,-0.06298828,1.059082,0.2148438,-0.534668,-0.2226563
799,24.6875,19.5625,3.75,0.01123047,-0.0009765625,1.189941,0.2148438,-0.534668,-0.2226563
800,21.3125,14.3125,-2.75,-0.05175781,-0.04736328,0.8735352,0.2070313,-0.5195313,-0.2255859
801,24.25,16.8125,0,-0.05566406,-0.1171875,1.011719,0.2255859,-0.5273438,-0.2255859
802,26,10.875,-1.625,-0.1113281,-0.1015625,1.035645,0.2255859,-0.5273438,-0.2255859
803,43.6875,6.4375,-32.3125,-0.1669922,-0.2792969,0.9130859,0.2124023,-0.5449219,-0.230957
804,34.875,1.8125,16,0.1308594,0.01757813,1.169922,0.2124023,-0.5449219,-0.230957
805,23.9375,10.375,12.9375,0.3774414,0.3076172,1.047363,0.2094727,-0.5375977,-0.2148438
806,5.5625,10.5625,-12.5625,0.2104492,0.1142578,1.126465,0.2124023,-0.5424805,-0.2226563
807,1.75,18.375,-4.3125,0.1030273,0.001953125,1.09082,0.2124023,-0.5424805,-0.2226563
808,2.125,15.125,-0.5,0.1108398,0.02929688,1.213379,0.2255859,-0.5375977,-0.2177734
809,-5.0625,19.6875,-0.5,0.1425781,0.07568359,1.185547,0.2255859,-0.5375977,-0.2177734
810,-13.5625,14.875,-8.75,0.1147461,0.1298828,1.09082,0.2177734,-0.5400391,-0.2255859
811,-28.8125,13.5,-10.0625,0.206543,0.09082031,1.094727,0.2177734,-0.5375977,-0.2202148
812,-44.9375,18,-1.1875,0.2939453,0.07568359,1.130371,0.2177734,-0.5375977,-0.2202148
813,-46.1875,17.9375,-7.0625,0.2265625,-0.004882813,1.086914,0.2202148,-0.5297852,-0.2255859
814,-43.1875,16.6875,-8.25,0.07128906,-0.1401367,1.05127,0.2148438,-0.534668,-0.2255859
815,-35.9375,16.4375,-6.75,-0.0078125,-0.2021484,1.063477,0.2148438,-0.534668,-0.2255859
816,-45.375,25.1875,-20.5625,0.2421875,-0.1362305,0.9682617,0.2255859,-0.534668,-0.2202148
817,-34.5,18,-4.8125,-0.03173828,-0.1635742,1.122559,0.2255859,-0.534668,-0.2202148
818,-37.0625,19.0625,-5.5,-0.05566406,-0.008789063,1.055176,0.2363281,-0.5170898,-0.2255859
819,-39.4375,16.625,-9.5,-0.08349609,-0.02832031,1.086914,0.230957,-0.5219727,-0.2226563
820,-46.1875,17,-7.5,0,-0.01660156,1.11084,0.230957,-0.5219727,-0.2226563
821,-45,17.125,-8.0625,0.06738281,-0.03613281,1.138184,0.2363281,-0.5146484,-0.2280273
822,-41.125,24.5,-6.6875,0.05126953,-0.07470703,1.328125,0.2363281,-0.5146484,-0.2280273
823,-45.9375,13.875,0.875,0.05908203,0.01367188,1.268555,0.2387695,-0.5014648,-0.2280273
824,-56,16.5,5.125,0,0.01757813,1.355957,0.2363281,-0.5068359,-0.2333984
825,-69.1875,11.375,4.75,-0.04785156,0.07958984,1.209473,0.2363281,-0.5068359,-0.2333984
826,-72.125,13.125,4.4375,-0.02001953,-0.008789063,1.193848,0.230957,-0.5014648,-0.230957
827,-75.3125,12.0625,7.25,0.1108398,-0.08642578,1.268555,0.2338867,-0.4760742,-0.230957
829,-70.3125,20.375,9.5625,0.206543,-0.08251953,1.059082,0.2338867,-0.4760742,-0.230957
830,-68.8125,19.5625,8.375,0.09912109,-0.06689453,1.043457,0.2441406,-0.4707031,-0.2358398
831,-57.9375,23.75,7.125,-0.08349609,-0.144043,1.09082,0.2441406,-0.4707031,-0.2358398
832,-45.1875,26.0625,12.875,-0.09130859,-0.1401367,1.197754,0.2495117,-0.4633789,-0.2358398
833,-35.375,25.75,15.8125,-0.07568359,-0.1518555,1.221191,0.2602539,-0.4580078,-0.2436523
834,-31.1875,21.9375,22.4375,-0.1474609,-0.09375,1.268555,0.2602539,-0.4580078,-0.2436523
835,-26.6875,18.8125,26.625,-0.1591797,-0.09765625,1.304199,0.2602539,-0.4658203,-0.2387695
836,-26.125,14.5625,29.3125,-0.08349609,-0.05517578,1.36377,0.2602539,-0.4658203,-0.2387695
837,-28.9375,14,29.625,-0.03564453,-0.06689453,1.29248,0.2548828,-0.4580078,-0.2358398
838,-38.5625,13,40.5625,-0.04785156,-0.04394531,1.316406,0.2548828,-0.4555664,-0.2387695
839,-38.125,17.625,29.9375,0.2182617,-0.02441406,1.241211,0.2548828,-0.4555664,-0.2387695
840,-36.375,20.5625,29.0625,0.05908203,-0.159668,1.256836,0.2524414,-0.4506836,-0.2387695
841,-29.875,25.125,28.6875,0.04736328,-0.1518555,1.189941,0.2631836,-0.4375,-0.2387695
842,-11.875,28.75,15.875,0.1108398,-0.1674805,1.122559,0.2631836,-0.4375,-0.2387695
843,-0.375,31.8125,26.875,-0.1152344,-0.2216797,1.098633,0.2602539,-0.4506836,-0.2358398
844,-13.5,24.9375,30.375,-0.5732422,-0.008789063,0.8974609,0.2602539,-0.4506836,-0.2358398
845,-27,25.875,38.8125,-0.03173828,0.09472656,1.122559,0.2685547,-0.4453125,-0.2387695
846,-43.5625,30.375,31.5,-0.01611328,-0.004882813,1.229492,0.2739258,-0.453125,-0.2387695
847,-42.75,33.25,23.9375,-0.02783203,-0.1865234,1.114746,0.2739258,-0.453125,-0.2387695
848,-36.1875,31,29.5,-0.2148438,-0.3256836,1.158203,0.2739258,-0.4506836,-0.2387695
849,-30.1875,28,37.5,-0.2348633,-0.2714844,1.146484,0.2739258,-0.4506836,-0.2387695
850,-17.0625,27.9375,34.5625,-0.203125,-0.2949219,1.20166,0.2709961,-0.4428711,-0.2387695
851,-11.625,31.875,40.4375,-0.02783203,-0.2250977,1.185547,0.2709961,-0.4326172,-0.2387695
852,-3.75,33.875,35.75,-0.06347656,-0.2407227,1.11084,0.2709961,-0.4326172,-0.2387695
853,-13.25,27.125,40.25,-0.3461914,-0.09375,1.003906,0.2788086,-0.4453125,-0.2412109
854,-20.125,28.625,39.25,-0.1948242,0.001953125,1.071289,0.2709961,-0.4350586,-0.230957
855,-24.9375,26.875,30.6875,-0.1669922,-0.08251953,1.039551,0.2709961,-0.4350586,-0.230957
856,-18.8125,25.5,25,-0.2509766,-0.2524414,1.169922,0.2763672,-0.4404297,-0.2358398
857,-12.875,25.375,28.3125,-0.3344727,-0.2177734,1.067383,0.2763672,-0.4404297,-0.2358398
858,-8.9375,20.75,30.9375,-0.5053711,-0.175293,1.027832,0.2949219,-0.4428711,-0.2358398
859,-7.0625,16.25,28.875,-0.4736328,-0.1713867,1.071289,0.2871094,-0.4404297,-0.2387695
860,-5.875,12.3125,28.4375,-0.3144531,-0.1865234,1.126465,0.2871094,-0.4404297,-0.2387695
861,-1.9375,8.4375,25,-0.3383789,-0.2099609,1.209473,0.300293,-0.4477539,-0.2280273
862,3.9375,7,23.0625,-0.3422852,-0.2368164,1.197754,0.300293,-0.4477539,-0.2280273
863,2.3125,8.5,21.25,-0.2983398,-0.1171875,1.154297,0.2871094,-0.4506836,-0.230957
864,4.5,7.9375,15.625,-0.3583984,-0.1054688,1.138184,0.2949219,-0.4350586,-0.2412109
865,4.875,9,13.3125,-0.3979492,-0.1210938,1.023926,0.2949219,-0.4350586,-0.2412109
866,6.3125,8.5,15.25,-0.4257813,-0.1401367,1.015625,0.2763672,-0.4404297,-0.2387695
867,5.3125,10.3125,17.5625,-0.4057617,-0.1401367,1.059082,0.2817383,-0.4301758,-0.2519531
868,13.3125,10.8125,14.25,-0.3701172,-0.2792969,1.063477,0.2817383,-0.4301758,-0.2519531
869,17.3125,13.3125,18.125,-0.3461914,-0.2602539,1.094727,0.2895508,-0.4404297,-0.2358398
870,16.4375,13.375,20.875,-0.3779297,-0.144043,1.09082,0.2895508,-0.4404297,-0.2358398
871,13.1875,11.75,19,-0.449707,-0.1674805,1.154297,0.2949219,-0.4477539,-0.230957
872,14,8.9375,18.125,-0.4458008,-0.2216797,1.173828,0.2949219,-0.4506836,-0.2333984
873,20.4375,7.3125,16.4375,-0.3066406,-0.2714844,1.221191,0.2949219,-0.4506836,-0.2333984
874,27.625,9.1875,13.8125,-0.230957,-0.2177734,1.189941,0.2924805,-0.4404297,-0.2280273
875,32.5,10,10.5625,-0.2426758,-0.2250977,1.166016,0.2924805,-0.4404297,-0.2280273
876,39.125,11.5,9.875,-0.2705078,-0.2563477,1.209473,0.2949219,-0.4555664,-0.2255859
877,50.1875,13,8.5,-0.3027344,-0.2910156,1.173828,0.2949219,-0.4555664,-0.230957
878,63.3125,12.25,9.375,-0.3222656,-0.3452148,1.122559,0.2949219,-0.4555664,-0.230957
879,70.875,11.9375,20.375,-0.3623047,-0.3681641,1.043457,0.2895508,-0.4682617,-0.2202148
880,67.6875,9.625,40.5625,-0.421875,-0.2792969,1.047363,0.2924805,-0.4736328,-0.2226563
881,54.875,12.1875,41.4375,-0.190918,-0.06298828,1.102539,0.2924805,-0.4736328,-0.2226563
882,27.4375,11.9375,21.9375,-0.1274414,-0.03222656,1.047363,0.2817383,-0.4760742,-0.2280273
883,21.375,47.5625,42.375,-0.175293,0.1992188,0.8496094,0.2817383,-0.4760742,-0.2280273
884,62.625,-19.3125,-214.5,-0.1113281,-1.249023,1.371582,0.2924805,-0.4760742,-0.2202148
885,115.3125,42.25,-7.5625,-0.5493164,-0.5654297,1.158203,0.3032227,-0.4941406,-0.2255859
886,87.875,59.6875,72,0.09521484,0.2612305,0.699707,0.3032227,-0.4941406,-0.2255859
887,82.625,41.5,-11.0625,-0.3461914,-0.09375,0.6757813,0.3032227,-0.4941406,-0.2148438
888,70.625,32.625,6.5625,-0.5454102,-0.3295898,0.7944336,0.3032227,-0.4941406,-0.2148438
889,61.125,25.125,15.8125,-0.421875,-0.1674805,0.8022461,0.3110352,-0.5092773,-0.2148438
890,65.1875,19.1875,0.8125,-0.3823242,-0.144043,0.7944336,0.3139648,-0.5117188,-0.2177734
891,51.375,16.375,3.8125,-0.2587891,-0.1557617,0.9760742,0.3139648,-0.5117188,-0.2177734
892,61.875,23.375,-3.1875,-0.230957,-0.04003906,1.067383,0.3242188,-0.5273438,-0.2177734
894,62.9375,29.8125,-5.0625,-0.21875,-0.004882813,1.031738,0.3188477,-0.5297852,-0.1884766
895,59.875,34.25,-11.8125,-0.230957,0.009765625,1.027832,0.3188477,-0.5297852,-0.1884766
896,54.3125,38.1875,-11,-0.2866211,-0.01660156,1.094727,0.3139648,-0.5322266,-0.1938477
897,49.6875,40.5,-10.625,-0.3305664,-0.04394531,0.9882813,0.3139648,-0.5322266,-0.1938477
898,44.1875,40.125,-11.125,-0.3662109,-0.09765625,0.8813477,0.3295898,-0.5375977,-0.1884766
899,39.875,38.125,-10.9375,-0.3701172,-0.05908203,0.9013672,0.3295898,-0.534668,-0.1860352
900,34.9375,26.1875,-11.1875,-0.4140625,-0.1210938,0.984375,0.3295898,-0.534668,-0.1860352
901,38.5625,30.125,-8.9375,-0.2626953,-0.1132813,1.098633,0.3188477,-0.5478516,-0.1884766
902,50.375,39.9375,-14.875,-0.2148438,-0.1518555,1.031738,0.3188477,-0.5478516,-0.1884766
903,59.375,21.8125,-34.625,-0.5571289,-0.1171875,1.537598,0.3349609,-0.550293,-0.1938477
904,56,-5,-45.3125,-0.4775391,-0.04394531,0.9604492,0.3295898,-0.5478516,-0.1831055
905,41.1875,-1.625,-55.75,-0.04394531,0.1489258,1.264648,0.3295898,-0.5478516,-0.1831055
906,27.8125,-4.125,-73.6875,-0.4936523,0.1220703,1.019531,0.3325195,-0.5581055,-0.1806641
907,28.8125,-12.4375,-53.75,-0.4697266,-0.2988281,1.391113,0.3457031,-0.5629883,-0.1806641
908,16.375,14.8125,-26.5625,0.222168,0.03710938,1.181641,0.3457031,-0.5629883,-0.1806641
909,17.1875,33.5625,-50.3125,0.453125,0.09863281,1.229492,0.3457031,-0.5527344,-0.1806641
910,43.4375,77,-74.1875,0.1069336,-0.2216797,1.035645,0.3457031,-0.5527344,-0.1806641
911,65.25,110.9375,-57.625,-0.1669922,-0.402832,0.8891602,0.3540039,-0.5527344,-0.1782227
912,74.625,112.9375,-52.9375,-0.2905273,-0.2792969,0.6323242,0.3642578,-0.5551758,-0.159668
913,77.4375,78.75,-55.875,-0.597168,-0.04736328,0.4545898,0.3642578,-0.5551758,-0.159668
914,62.1875,24.8125,-65.8125,-0.6289063,0.02929688,0.628418,0.3803711,-0.5605469,-0.1518555
915,48.5,-14.0625,-81.4375,-0.5292969,-0.01660156,0.8696289,0.3803711,-0.5605469,-0.1518555
916,39,-29.5,-88.75,-0.5092773,-0.02832031,1.071289,0.3803711,-0.5605469,-0.1518555
917,33.25,-31.875,-91.25,-0.5053711,-0.03613281,1.241211,0.3886719,-0.5683594,-0.1518555
918,31.9375,-37.0625,-84.0625,-0.6884766,-0.09375,1.193848,0.3886719,-0.5683594,-0.1518555
919,18.8125,-40.5625,-81.1875,-0.7163086,-0.2563477,1.134277,0.394043,-0.5708008,-0.1464844
920,10.0625,-31.5625,-85.3125,-0.4536133,-0.418457,1.075195,0.3964844,-0.5581055,-0.144043
921,36.625,-36.6875,-65.375,-0.2387695,-0.2910156,1.169922,0.3964844,-0.5581055,-0.144043
922,62.5,-34.125,-52.6875,-0.02783203,0.005859375,1.185547,0.394043,-0.5551758,-0.1464844
923,63.5625,-20.25,-38.875,-0.06347656,0.02929688,1.138184,0.394043,-0.5551758,-0.1464844
924,65.375,-1.125,-15,-0.1552734,-0.06689453,1.130371,0.3911133,-0.5708008,-0.1542969
925,58.9375,8.0625,17.75,-0.1630859,0.02929688,1.019531,0.3911133,-0.5708008,-0.1464844
926,46.3125,14.5625,24.75,-0.2827148,0.1875,0.9130859,0.3911133,-0.5708008,-0.1464844
927,26.875,12.875,29.6875,-0.4018555,0.3266602,0.8930664,0.3886719,-0.5756836,-0.1386719
928,-8.6875,7.5,31,-0.4775391,0.3037109,0.8339844,0.3886719,-0.5756836,-0.1386719
929,-29.1875,-5.0625,24.875,-0.7524414,0.1259766,0.940918,0.3857422,-0.5859375,-0.1464844
930,-39.75,-21.8125,27.9375,-1.066895,-0.07861328,1.05127,0.3833008,-0.5834961,-0.1464844
931,-31.3125,-33.4375,30.75,-1.026855,-0.109375,1.169922,0.3833008,-0.5834961,-0.1464844
932,-20.1875,-40.5,35.4375,-0.8359375,-0.07470703,1.225098,0.3833008,-0.5732422,-0.1489258
933,-11.125,-32.1875,35.3125,-0.5092773,-0.05908203,1.411133,0.3779297,-0.5859375,-0.1464844
934,-4.9375,-23.9375,37.1875,-0.1235352,0.05224609,1.324219,0.3779297,-0.5859375,-0.1464844
935,-27.875,-15.3125,18,0.04345703,0.168457,1.126465,0.3779297,-0.5834961,-0.1542969
936,-43.4375,-4.4375,-15.875,-0.06347656,0.08349609,1.264648,0.3779297,-0.5834961,-0.1542969
937,-57.5625,-6.3125,10.9375,0.03125,0.1411133,1.584961,0.3696289,-0.5732422,-0.1489258
938,-54.1875,-0.125,2.0625,-0.1630859,0.2299805,1.268555,0.375,-0.5708008,-0.1542969
939,-54.6875,-11,-6.6875,-0.4379883,0.001953125,1.415039,0.375,-0.5708008,-0.1542969
940,-43.5625,-14.0625,9.5625,-0.6166992,-0.02441406,1.359863,0.3642578,-0.5605469,-0.1621094
941,-38.3125,-5.375,34.75,-0.5571289,0.09863281,1.225098,0.3642578,-0.5605469,-0.1621094
942,-38.5,-3.6875,53.75,-0.5014648,0.137207,1.098633,0.3564453,-0.5654297,-0.1650391
943,-40.25,-6.125,56.8125,-0.3461914,0.2456055,1,0.3564453,-0.5551758,-0.159668
944,-65.9375,-7.875,39.5,-0.1831055,0.1914063,1.015625,0.3564453,-0.5551758,-0.159668
945,-74.25,-8.9375,23.3125,-0.05175781,0.137207,1.039551,0.3564453,-0.5551758,-0.159668
946,-70.5625,0.75,30.375,0.1108398,0.1489258,1.122559,0.3486328,-0.550293,-0.1782227
947,-61.5625,13.25,35.1875,0.04345703,0.1064453,1.083008,0.3486328,-0.550293,-0.1782227
948,-74.6875,23,30.1875,-0.230957,0.06396484,1.134277,0.3486328,-0.550293,-0.1782227
949,-37.25,30.875,34,-0.5253906,0.04101563,1.256836,0.3486328,-0.550293,-0.1782227
950,-21.125,16.5625,27,-0.5415039,0.2998047,1.122559,0.3540039,-0.5478516,-0.1621094
951,-26.9375,16.5625,-18.625,-0.597168,0.04443359,1.11084,0.3540039,-0.5478516,-0.1621094
952,-13.0625,7.1875,-37.6875,-0.4575195,-0.04003906,1.328125,0.3540039,-0.5478516,-0.1621094
953,17.375,-1,-26.5,-0.4975586,-0.06689453,1.418945,0.3696289,-0.5400391,-0.1704102
954,42.625,-0.875,-20.875,-0.5053711,0.02929688,1.339844,0.3696289,-0.5400391,-0.1704102
955,51.875,-2.8125,-34.8125,-0.4775391,0.03320313,1.328125,0.3696289,-0.5400391,-0.1704102
956,62.25,-0.875,-36.1875,-0.5092773,-0.01269531,1.217285,0.3588867,-0.5400391,-0.1704102
957,62,-6.5625,-13.9375,-0.175293,0.1489258,1.296387,0.3588867,-0.5400391,-0.1704102
959,60.25,-2.5,-20.0625,-0.4697266,0.1411133,1.043457,0.3588867,-0.5400391,-0.1704102
960,51.1875,-10.5625,-10.9375,-0.6806641,0.1181641,1.003906,0.375,-0.5551758,-0.1704102
961,40.125,-13.125,1,-0.6450195,0.08740234,1.05127,0.375,-0.5551758,-0.1704102
962,42.0625,-14.125,9.625,-0.4140625,0.06005859,0.9804688,0.375,-0.5551758,-0.1704102
963,29,-10.9375,11.6875,-0.3183594,0.07958984,0.9804688,0.375,-0.5551758,-0.1704102
964,27.25,-5.1875,18.5,-0.2226563,-0.008789063,0.9804688,0.3588867,-0.5629883,-0.159668
965,27.1875,-4,24.8125,-0.3066406,-0.04394531,0.9682617,0.3588867,-0.5629883,-0.159668
966,21.5625,-4.625,39.25,-0.449707,-0.02441406,0.8813477,0.3588867,-0.5629883,-0.159668
967,5.75,1.8125,59,-0.2744141,0.1606445,0.9326172,0.3510742,-0.5629883,-0.159668
968,-11.0625,9.5,51.75,-0.05957031,0.1953125,0.9130859,0.3510742,-0.5629883,-0.159668
969,-21.8125,11.8125,42.0625,-0.1552734,0.04101563,0.9013672,0.3510742,-0.5629883,-0.159668
970,-23.0625,9.875,37.75,-0.2666016,0.005859375,0.9448242,0.3510742,-0.5708008,-0.1704102
971,-25.0625,5.9375,33.75,-0.3461914,0.02929688,1.059082,0.3510742,-0.5708008,-0.1704102
972,-22.5625,6.625,28.625,-0.3740234,0.07958984,1.063477,0.3510742,-0.5708008,-0.1704102
973,-20.75,6,18.5625,-0.3583984,0.02148438,1.11084,0.3486328,-0.5708008,-0.1704102
974,-18.9375,6.4375,16.875,-0.2705078,0.07568359,1.11084,0.3486328,-0.5708008,-0.1704102
975,-17.375,5.875,14.375,-0.2548828,0.06005859,1.067383,0.3486328,-0.5708008,-0.1704102
976,-19.1875,8.6875,17.4375,-0.2983398,0.09863281,1.086914,0.3486328,-0.5708008,-0.1704102
977,-58.3125,4.875,57.75,-0.3183594,0.4311523,1.130371,0.3540039,-0.5683594,-0.1650391
978,-53.125,15.6875,22.25,-0.3979492,0.203125,1.047363,0.3540039,-0.5683594,-0.1650391
979,-95.9375,17.5625,61.75,-0.5454102,0.21875,0.9526367,0.3540039,-0.5683594,-0.1650391
980,-89.9375,27.0625,71.1875,-0.3623047,0.2109375,0.9287109,0.3540039,-0.5605469,-0.1782227
981,-67.375,14.6875,45.625,-0.1948242,0.02539063,0.9248047,0.3540039,-0.5605469,-0.1782227
982,-107.6875,6.5625,120.1875,-0.1552734,0.1489258,1.079102,0.3540039,-0.5605469,-0.1782227
983,-23.875,23.875,55.9375,-0.1630859,0.05224609,0.8774414,0.3457031,-0.5527344,-0.1806641
984,-28.1875,20.1875,24.6875,-0.3740234,-0.2714844,0.9804688,0.3457031,-0.5527344,-0.1806641
985,-4.875,22.125,40.75,-0.230957,-0.06298828,1.114746,0.3457031,-0.5527344,-0.1806641
986,10.9375,20,30.1875,-0.3144531,0.07958984,1.035645,0.3457031,-0.5551758,-0.1860352
987,8.875,19.5,33.125,-0.3222656,0.1103516,1.173828,0.3457031,-0.5551758,-0.1860352
988,28.3125,13.0625,19.25,-0.4936523,-0.08984375,1.150391,0.3510742,-0.550293,-0.1782227
989,37.75,10.375,17.625,-0.5454102,-0.05517578,1.185547,0.3510742,-0.550293,-0.1782227
990,48.9375,9.0625,12.5,-0.4296875,0.06396484,1.063477,0.3486328,-0.5581055,-0.1674805
991,51.1875,5.25,9.125,-0.2705078,0.152832,1.086914,0.340332,-0.5581055,-0.1782227
992,52.125,4.375,11.5,-0.1552734,0.1875,1.11084,0.340332,-0.5581055,-0.1782227
993,52.6875,2.5,4.8125,-0.2270508,0.1181641,1.083008,0.3378906,-0.5683594,-0.1542969
994,53.5,1.25,-8,-0.2944336,0.005859375,1.075195,0.3564453,-0.5708008,-0.1728516
995,52.75,0.375,-20.9375,-0.3066406,-0.04736328,1.05127,0.3564453,-0.5708008,-0.1728516
996,44.625,0.9375,-26.4375,-0.2866211,-0.04736328,1.043457,0.3540039,-0.5756836,-0.1650391
997,40.0625,2.25,-19.9375,-0.2148438,-0.01660156,1.075195,0.3540039,-0.5756836,-0.1650391
998,34.8125,3.4375,-14.6875,-0.1870117,-0.04003906,1.059082,0.340332,-0.5834961,-0.1704102
999,25.1875,3.25,-10.25,-0.2548828,-0.09375,1.126465,0.3618164,-0.5913086,-0.159668
1000,24.4375,0.875,-9.5,-0.2705078,-0.1401367,1.154297,0.3618164,-0.5913086,-0.159668
1001,26.0625,-3.125,-12,-0.3540039,-0.1557617,1.11084,0.3540039,-0.5888672,-0.1542969
1002,29.3125,-8.9375,-18.625,-0.449707,-0.09765625,1.158203,0.3540039,-0.5888672,-0.1542969
1003,33.625,-13.1875,-22.625,-0.4575195,-0.06689453,1.134277,0.3540039,-0.5888672,-0.1489258
1004,33.9375,-14.625,-23.9375,-0.3583984,0.02929688,1.20166,0.3564453,-0.5834961,-0.1518555
1005,29,-14.625,-22.4375,-0.3105469,0.08740234,1.237305,0.3564453,-0.5834961,-0.1518555
1006,27.1875,-13.625,-14.3125,-0.2705078,0.1796875,1.205566,0.3540039,-0.5834961,-0.1542969
1007,19.3125,-12.8125,-10.875,-0.1831055,0.2841797,1.177734,0.3618164,-0.59375,-0.1572266
1008,9.125,-13.4375,-16.125,-0.2866211,0.2802734,1.197754,0.3618164,-0.59375,-0.1572266
1009,5.5,-17.4375,-19.875,-0.3344727,0.2456055,1.193848,0.3564453,-0.5810547,-0.1572266
1010,7.125,-19.875,-20.1875,-0.3105469,0.1953125,1.29248,0.3564453,-0.5810547,-0.1572266
1011,11.75,-21.5625,-18.5625,-0.2626953,0.08349609,1.264648,0.3486328,-0.6015625,-0.1572266
1012,17.75,-22.875,-20.75,-0.2866211,0.02148438,1.260742,0.3378906,-0.5834961,-0.1650391
1013,30.5,-24.625,-19.375,-0.2509766,-0.01660156,1.268555,0.3378906,-0.5834961,-0.1650391
1014,42.4375,-25.5,-21.5,-0.2705078,-0.03222656,1.193848,0.3540039,-0.6015625,-0.1489258
1015,48.375,-27.3125,-21.375,-0.2509766,0.04443359,1.154297,0.3540039,-0.6015625,-0.1489258
1016,49,-28.5625,-16.25,-0.2866211,0.09863281,1.102539,0.3457031,-0.5961914,-0.1518555
1017,43.375,-28.8125,-10.375,-0.2426758,0.2148438,1.114746,0.3349609,-0.5986328,-0.1572266
1018,31.0625,-29.3125,-7.6875,-0.2387695,0.2919922,1.059082,0.3349609,-0.5986328,-0.1572266
1019,16.75,-29.3125,-6.1875,-0.2070313,0.2880859,1.063477,0.3349609,-0.6088867,-0.1518555
1020,5.5625,-29.5,-4.4375,-0.175293,0.2958984,1.122559,0.3457031,-0.6015625,-0.1572266
1021,0.75,-30,-3.6875,-0.1870117,0.2651367,1.146484,0.3457031,-0.6015625,-0.1572266
1022,6.6875,-29.5625,-6.5625,-0.1235352,0.1411133,1.169922,0.3378906,-0.5961914,-0.159668
1024,8.375,-31.1875,-6.625,-0.230957,0.03320313,1.189941,0.3378906,-0.5961914,-0.159668
1025,14.25,-33.875,-3.625,-0.2866211,-0.008789063,1.173828,0.3325195,-0.5986328,-0.1542969
1026,19.3125,-34.8125,-3.1875,-0.2983398,-0.01660156,1.166016,0.3295898,-0.6118164,-0.1650391
1027,24.4375,-38.5625,-1.75,-0.3422852,0.02929688,1.118652,0.3295898,-0.6118164,-0.1650391
1028,29.375,-43.6875,-4.3125,-0.3583984,0.05615234,1.158203,0.3295898,-0.5986328,-0.1518555
1029,24.1875,-47.0625,-13.1875,-0.3027344,0.09863281,1.169922,0.3295898,-0.5986328,-0.1518555
1030,11.75,-48.1875,-22.125,-0.2270508,0.1220703,1.166016,0.3188477,-0.6040039,-0.1489258
1031,1.875,-52.5625,-18.4375,-0.1274414,0.2109375,1.217285,0.3164063,-0.6088867,-0.1542969
1032,-11.0625,-49.3125,-19.3125,-0.04003906,0.2338867,1.359863,0.3164063,-0.6088867,-0.1542969
1033,-21.9375,-47.0625,-21.6875,-0.1035156,0.222168,1.3125,0.3188477,-0.6088867,-0.159668
1034,-22.8125,-48.125,-16,-0.1152344,0.1298828,1.339844,0.3217773,-0.6064453,-0.1650391
1035,-18.875,-48.6875,-3.5,-0.04785156,0.1103516,1.288574,0.3217773,-0.6064453,-0.1650391
1036,-15.1875,-50,-5.5,0.003417969,0.1411133,1.225098,0.3139648,-0.6088867,-0.1621094
1037,-18.875,-48.75,-4.875,-0.08740234,0.222168,1.205566,0.3139648,-0.6088867,-0.1621094
1038,-26.25,-46,-1.9375,-0.02783203,0.2763672,1.169922,0.3032227,-0.6015625,-0.1674805
1039,-31,-43.5625,-7.8125,0.01953125,0.253418,1.229492,0.300293,-0.6040039,-0.175293
1040,-31.625,-41.375,-13,-0.03173828,0.1220703,1.166016,0.300293,-0.6040039,-0.175293
1041,-26.8125,-41.6875,-12.8125,-0.09960938,0.09472656,1.158203,0.2924805,-0.6015625,-0.1806641
1042,-23.1875,-42.6875,-15.625,-0.1713867,0.1220703,1.154297,0.2924805,-0.6015625,-0.1806641
1043,-21.5,-45.0625,-14.25,-0.2226563,0.1992188,1.130371,0.2949219,-0.5913086,-0.1782227
1044,-18.875,-47.5,-18.75,-0.175293,0.2070313,1.086914,0.2924805,-0.5859375,-0.1831055
1045,-22.4375,-50.375,-27.1875,-0.1791992,0.2416992,1.138184,0.2924805,-0.5859375,-0.1831055
1046,-23.1875,-53,-36.8125,-0.2109375,0.1953125,1.162109,0.2895508,-0.59375,-0.1884766
1047,-25.3125,-54.375,-38.9375,-0.2827148,0.152832,1.162109,0.2817383,-0.5756836,-0.1884766
1048,-63.3125,-79.375,-1,-0.5136719,0.04833984,1.162109,0.2817383,-0.5756836,-0.1884766
1049,-53.5625,-39.9375,-1.5625,0.1508789,0.5932617,1.205566,0.2788086,-0.5786133,-0.1914063
1050,-45.875,-40.9375,-29.5,-0.2548828,-0.1479492,1.083008,0.2788086,-0.5786133,-0.1914063
1051,-13.75,-45.9375,-27.125,-0.4140625,-0.3139648,0.940918,0.265625,-0.5708008,-0.1914063
1052,-2.3125,-51.875,15.6875,-0.1513672,0.168457,1.169922,0.2739258,-0.5605469,-0.1962891
1053,-12.625,-51,13.375,-0.1669922,0.2612305,1.015625,0.2739258,-0.5605469,-0.1962891
1054,-22.4375,-53.1875,-8.5,-0.2226563,0.06005859,0.9643555,0.2631836,-0.5654297,-0.1938477
1055,-6.875,-36.75,16.9375,-0.02392578,0.2919922,0.8222656,0.2631836,-0.5654297,-0.1938477
1056,3.6875,-37,-0.875,-0.2070313,-0.2216797,0.9960938,0.2548828,-0.5683594,-0.2094727
1057,2,-33.4375,8.875,-0.2270508,-0.09765625,0.9208984,0.2602539,-0.5629883,-0.2045898
1058,7.8125,-30,15.1875,-0.1196289,-0.004882813,0.8891602,0.2602539,-0.5629883,-0.2045898
1059,4.125,-26.5625,-1.3125,-0.1474609,-0.109375,0.8930664,0.2548828,-0.5683594,-0.2045898
1060,-7.6875,-25.6875,-0.9375,-0.07958984,-0.1289063,0.9091797,0.2548828,-0.5756836,-0.1992188
1061,-16.1875,-26.5,-0.625,-0.08349609,-0.125,0.9682617,0.2548828,-0.5756836,-0.1992188
1062,-21.4375,-27.4375,-2.8125,-0.1992188,-0.05517578,1.027832,0.2495117,-0.5732422,-0.2045898
1063,-32.0625,-29,-3.5,-0.246582,0.001953125,1.063477,0.2495117,-0.5732422,-0.2045898
1064,-40.875,-29.5,-5.5625,-0.2426758,0.009765625,1.047363,0.2470703,-0.5605469,-0.2177734
1065,-52.875,-30.25,-11.3125,-0.1669922,0.04833984,1.039551,0.2338867,-0.5581055,-0.2045898
1066,-62.8125,-29.25,-19.125,-0.203125,-0.01269531,1.043457,0.2338867,-0.5581055,-0.2045898
1067,-63.625,-26.375,-22.25,-0.1870117,-0.05126953,0.9760742,0.230957,-0.5581055,-0.1938477
1068,-65.8125,-23.875,-25.375,-0.1552734,-0.07470703,0.9682617,0.230957,-0.5581055,-0.1938477
1069,-96.25,-26.1875,-11.4375,-0.2705078,0.04443359,0.9487305,0.2338867,-0.5449219,-0.2094727
1070,-42.625,-5.6875,-31.4375,0.1030273,-0.2021484,0.8774414,0.2285156,-0.534668,-0.2177734
1071,-6.25,1.0625,-23.3125,-0.1669922,-0.2021484,1.122559,0.2285156,-0.534668,-0.2177734
1072,35.25,14.5625,15.375,-0.3027344,-0.5151367,1.150391,0.2387695,-0.5195313,-0.2094727
1073,131.5,38.5625,149.0625,0.04345703,0.1723633,0.07519531,0.2363281,-0.534668,-0.2255859
1074,-35.25,4,-26.4375,0.2543945,0.9526367,0.5849609,0.2363281,-0.534668,-0.2255859
1075,-3.875,14.75,-45.0625,-0.2944336,0.1411133,0.8457031,0.230957,-0.5400391,-0.2148438
1076,-24.75,8.4375,-21.625,-0.1552734,0.1875,1.094727,0.230957,-0.5400391,-0.2148438
1077,-13.125,6.25,-34.4375,-0.1513672,0.07177734,1.189941,0.2338867,-0.5400391,-0.2226563
1078,-5.125,2.5,-31,-0.230957,0.02929688,1.249023,0.2416992,-0.5375977,-0.2177734
1079,0.25,-3.4375,-25.5625,-0.2866211,0.06396484,1.34375,0.2416992,-0.5375977,-0.2177734
1080,-0.6875,-10.125,-27.25,-0.246582,0.02929688,1.367676,0.2470703,-0.534668,-0.2202148
1081,-0.0625,-16.75,-31.625,-0.1713867,-0.07470703,1.375488,0.2470703,-0.534668,-0.2202148
1082,7.8125,-21.4375,-32.875,-0.1591797,-0.159668,1.375488,0.230957,-0.5375977,-0.2202148
1083,19.25,-25.875,-31.125,-0.1552734,-0.1479492,1.332031,0.2338867,-0.534668,-0.2094727
1084,21.125,-28.625,-44.6875,-0.1152344,-0.09375,1.197754,0.2338867,-0.534668,-0.2094727
1085,28.75,-38.3125,-48.75,-0.1948242,-0.05908203,1.264648,0.2416992,-0.5249023,-0.2226563
1086,37.25,-36.8125,-35.8125,-0.1713867,0.04443359,1.213379,0.2387695,-0.534668,-0.2177734
1087,34.625,-37.875,-26.3125,-0.1274414,0.1142578,1.150391,0.2387695,-0.534668,-0.2177734
1089,18.625,-39.6875,-23.0625,-0.2509766,0.1645508,1.126465,0.2363281,-0.550293,-0.2177734
1090,10.5,-37,-14.5,-0.2109375,0.1181641,1.122559,0.2363281,-0.550293,-0.2177734
1091,0.125,-35.9375,-12,-0.1552734,0.09082031,1.197754,0.2416992,-0.5449219,-0.2177734
1092,-4.1875,-31.625,-11.9375,-0.1474609,-0.02832031,1.126465,0.2255859,-0.5527344,-0.2148438
1093,4.6875,-21.875,-5.5625,-0.1074219,-0.1171875,1.177734,0.2255859,-0.5527344,-0.2148438
1094,23.8125,-6.75,4.125,-0.1113281,-0.1713867,1.169922,0.2177734,-0.5400391,-0.2280273
1095,45.875,8,15.125,-0.1074219,-0.144043,1.134277,0.2177734,-0.5400391,-0.2280273
1096,63.3125,20.0625,23.75,-0.1552734,-0.05517578,1.039551,0.2202148,-0.550293,-0.2202148
1097,69.1875,21.8125,27.8125,-0.1552734,0.02929688,0.9643555,0.2285156,-0.5527344,-0.2124023
1098,65.25,22.6875,31.75,-0.1992188,0.137207,0.9487305,0.2285156,-0.5527344,-0.2124023
1099,62.0625,24.9375,31.25,-0.1196289,0.1450195,0.9130859,0.230957,-0.5629883,-0.2045898
1100,55.8125,26.375,26.5625,-0.05957031,0.1835938,0.8061523,0.2285156,-0.5654297,-0.2148438
1101,44.4375,25.3125,18.25,0.02734375,0.1835938,0.8061523,0.2285156,-0.5654297,-0.2148438
1102,34.125,24.8125,3.875,0,0.1567383,0.8579102,0.2285156,-0.5756836,-0.1962891
1103,23.875,24.25,-7.6875,-0.04785156,0.1259766,0.7866211,0.2285156,-0.5756836,-0.1962891
1104,0,20.1875,-4.8125,-0.06787109,0.1835938,0.8579102,0.2338867,-0.5786133,-0.2070313
1105,-16.9375,18.125,-0.5625,-0.04003906,0.1762695,0.9248047,0.2338867,-0.5786133,-0.1938477
1106,-30.375,16.5,0.5,-0.09130859,0.09082031,1.05127,0.2338867,-0.5786133,-0.1938477
1107,-34.3125,15.375,1.3125,-0.1313477,-0.03613281,1.205566,0.2363281,-0.5683594,-0.1962891
1108,-25.8125,16.625,-2,-0.1196289,-0.05126953,1.264648,0.2363281,-0.5683594,-0.1962891
1109,-11.75,18.5625,-10.375,-0.1630859,-0.07861328,1.407227,0.2363281,-0.5629883,-0.2070313
1110,9.5625,23.4375,-14.375,-0.1591797,-0.1132813,1.391113,0.2363281,-0.5756836,-0.2016602
1111,27.9375,25.125,-15.4375,-0.175293,-0.09375,1.320313,0.2363281,-0.5756836,-0.2016602
1112,44.625,27.5625,-15.8125,-0.1591797,-0.07080078,1.324219,0.2441406,-0.5708008,-0.1962891
1113,54.25,27.5625,-15.375,-0.175293,-0.03222656,1.256836,0.2470703,-0.5810547,-0.1962891
1114,60.5625,27.25,-17.75,-0.1992188,-0.008789063,1.205566,0.2470703,-0.5810547,-0.1962891
1115,62.1875,27.4375,-16.625,-0.2226563,0.02929688,1.205566,0.2524414,-0.5834961,-0.1860352
1116,62.9375,26.8125,-16.3125,-0.1669922,0.04101563,1.169922,0.2524414,-0.5834961,-0.1860352
1117,57.125,25.25,-17.8125,-0.1791992,0.1645508,1.14209,0.2524414,-0.5913086,-0.1860352
1118,29.8125,19.1875,-14,-0.1630859,0.3227539,1.14209,0.2548828,-0.5913086,-0.1860352
1119,4,8.8125,10.5625,-0.06347656,0.3999023,1.177734,0.2548828,-0.5913086,-0.1860352
1120,19.5625,15.0625,0.5,0.08691406,0.08349609,1.268555,0.2602539,-0.5913086,-0.1831055
1121,31.5625,13,1.4375,-0.02392578,-0.1289063,1.213379,0.2602539,-0.5913086,-0.1831055
1122,39.1875,8.875,10.4375,-0.0078125,0.137207,1.134277,0.2548828,-0.5961914,-0.1831055
1123,38.25,7.625,-0.75,0,0.2260742,1.067383,0.2631836,-0.6142578,-0.1704102
1124,35.125,7.6875,-24.5,-0.05175781,0.01367188,1.138184,0.2631836,-0.6142578,-0.1704102
1125,43,7.6875,-25.875,-0.05957031,-0.03613281,1.047363,0.2548828,-0.6015625,-0.1782227
1126,43,6.125,-19.5,-0.0078125,0.09863281,1.075195,0.2709961,-0.6088867,-0.1704102
1127,37.625,5.1875,-7.3125,-0.04003906,0.2651367,1.031738,0.2709961,-0.6088867,-0.1704102
1128,20,2.9375,-2.8125,-0.1035156,0.3574219,1.015625,0.2739258,-0.6166992,-0.1728516
1129,3.9375,2,-7.1875,-0.1391602,0.3305664,1.079102,0.2739258,-0.6166992,-0.1728516
1130,-3.1875,1.6875,-1.125,-0.1152344,0.3188477,1.083008,0.2685547,-0.6118164,-0.1674805
1131,-17.4375,2.6875,5.4375,-0.06787109,0.3964844,1.055176,0.265625,-0.6118164,-0.175293
1132,-32.6875,3.125,-0.6875,-0.1196289,0.4619141,1.035645,0.265625,-0.6118164,-0.175293
1133,-38.5,3.75,-7.25,-0.1035156,0.3188477,1.019531,0.2685547,-0.6118164,-0.1782227
1134,-33.4375,5.8125,-11.0625,-0.1113281,0.1835938,1.083008,0.2685547,-0.6118164,-0.1782227
1135,-16.5625,9.8125,-9.1875,-0.08349609,0.09863281,1.063477,0.265625,-0.6118164,-0.1728516
1136,-6,11.125,-10.5,-0.1235352,0.09082031,1.023926,0.2739258,-0.5986328,-0.1831055
1137,-5,11.6875,-14.5,-0.1552734,0.137207,1.106934,0.2739258,-0.5986328,-0.1831055
1138,-3.5,12.5,-19.8125,-0.1513672,0.02929688,1.130371,0.2685547,-0.5913086,-0.1806641
1139,6.3125,12.9375,-22.8125,-0.1513672,-0.05126953,1.166016,0.2739258,-0.6015625,-0.175293
1140,18.125,13.1875,-23.25,-0.1035156,-0.07080078,1.229492,0.2739258,-0.6015625,-0.175293
1141,27.25,12.3125,-20.5,-0.1474609,0.01367188,1.185547,0.2709961,-0.5961914,-0.1806641
1142,21.75,10.5625,-19.6875,-0.1513672,0.1489258,1.158203,0.2709961,-0.5961914,-0.1806641
1143,14,8.3125,-22.5625,-0.1791992,0.152832,1.20166,0.265625,-0.6015625,-0.1704102
1144,9.0625,5.4375,-14.375,-0.1391602,0.152832,1.249023,0.2871094,-0.6088867,-0.1704102
1145,10.3125,4.5,-2.75,-0.1513672,0.168457,1.193848,0.2871094,-0.6088867,-0.1704102
1146,12.25,4.25,0,-0.1552734,0.1142578,1.158203,0.2788086,-0.6015625,-0.1728516
1147,14.1875,3.5,2.0625,-0.1552734,0.06396484,1.130371,0.2788086,-0.6015625,-0.1728516
1148,17.25,2.4375,7,-0.07177734,0.1298828,1.134277,0.2895508,-0.6088867,-0.1728516
1149,16.4375,5.6875,10.125,-0.05566406,0.203125,1.075195,0.2871094,-0.6040039,-0.1674805
1150,6.9375,4.375,10.75,-0.05566406,0.2109375,1.130371,0.2871094,-0.6040039,-0.1674805
1151,6.125,4.3125,13.4375,-0.05566406,0.1142578,1.130371,0.2871094,-0.6166992,-0.1782227
1152,10.0625,5.25,17.6875,-0.07568359,0.1567383,1.098633,0.2871094,-0.6040039,-0.1782227
1154,9.75,4.875,24.25,-0.09130859,0.2495117,1.122559,0.2871094,-0.6040039,-0.1782227
1155,5,5.75,22.0625,-0.03564453,0.3886719,0.9960938,0.2763672,-0.6191406,-0.175293
1156,1,5.4375,17.625,-0.07568359,0.3925781,1.063477,0.2763672,-0.6191406,-0.175293
1157,-6.5,5.25,14.125,0.007324219,0.3730469,1.09082,0.2841797,-0.6064453,-0.1650391
1158,-7.1875,4.375,10.0625,-0.02392578,0.2958984,1.126465,0.2871094,-0.6142578,-0.1650391
1159,-12.375,5.6875,19.5625,0,0.3652344,1.106934,0.2871094,-0.6142578,-0.1650391
1160,-18.125,4.875,13.25,0.01953125,0.3886719,1.122559,0.2817383,-0.6191406,-0.1806641
1161,-23.5,4,6.625,-0.08349609,0.152832,1.122559,0.2817383,-0.6191406,-0.1806641
1162,-38.6875,-7.125,12.625,-0.394043,0.1220703,1.264648,0.2763672,-0.6088867,-0.1674805
1163,-31.375,-1,6,-0.02001953,0.1875,1.130371,0.2763672,-0.6064453,-0.1674805
1164,-19.75,-1,5.0625,0.0234375,-0.004882813,1.114746,0.2763672,-0.6064453,-0.1674805
1165,-12.5,-6.3125,7.375,-0.2426758,0.01367188,1.284668,0.2841797,-0.6015625,-0.1704102
1166,3.4375,-3.5625,6.8125,-0.04394531,0.06005859,1.130371,0.2763672,-0.6015625,-0.175293
1167,11.5625,-4.625,6.8125,-0.07177734,0.08349609,1.055176,0.2763672,-0.6015625,-0.175293
1168,3,-6.625,16.5625,-0.1391602,0.3037109,1.106934,0.2739258,-0.6040039,-0.1782227
1169,-9.375,-6.375,17.375,-0.1474609,0.2880859,1.079102,0.2739258,-0.6040039,-0.1782227
1170,-17.5625,-7.375,18.9375,-0.1474609,0.1489258,1.146484,0.2763672,-0.6064453,-0.1831055
1171,-25.625,-8.5,14.9375,-0.09130859,0.1181641,1.189941,0.265625,-0.6118164,-0.1782227
1172,-19.0625,-9.3125,11.3125,-0.1074219,0.02148438,1.280762,0.265625,-0.6118164,-0.1782227
1173,0,-8.875,28.0625,-0.4057617,-0.5458984,1.505859,0.2685547,-0.6040039,-0.175293
1174,12.875,-13.3125,25.6875,0.003417969,0.1875,1.379395,0.2685547,-0.6040039,-0.175293
1175,5.25,-11.75,5.125,0.03515625,0.203125,1.20166,0.2709961,-0.6118164,-0.1674805
1176,1.625,-6,8.5,-0.00390625,0.04443359,1.233398,0.2631836,-0.6088867,-0.175293
1177,9.625,-5.5625,10.75,-0.1430664,-0.04736328,1.276855,0.2631836,-0.6088867,-0.175293
1178,15.8125,-6.375,10.5625,-0.2109375,-0.02441406,1.209473,0.2685547,-0.6142578,-0.175293
1179,15.0625,-7.5,12.25,-0.1669922,0.08349609,1.169922,0.265625,-0.6166992,-0.1782227
1180,11.0625,-7.5625,14.125,-0.1352539,0.152832,1.197754,0.265625,-0.6166992,-0.1782227
1181,5.4375,-7.125,12.6875,-0.1513672,0.1723633,1.150391,0.2602539,-0.6015625,-0.1704102
1182,-3.0625,-7.375,10.5,-0.1713867,0.1142578,1.134277,0.2602539,-0.6015625,-0.1704102
1183,-11.125,-8.8125,11.0625,-0.1831055,0.04443359,1.098633,0.2578125,-0.5986328,-0.1728516
1184,-10.25,-8.8125,11.0625,-0.1196289,-0.07861328,1.106934,0.2524414,-0.6064453,-0.1806641
1185,3.3125,-6.625,6.5625,-0.07177734,-0.1674805,1.079102,0.2524414,-0.6064453,-0.1806641
1186,16.5,-4.9375,5.5,-0.08349609,-0.1479492,1.027832,0.2495117,-0.6220703,-0.1650391
1187,23.4375,-4.25,9.125,-0.03564453,-0.01660156,1.047363,0.2495117,-0.6220703,-0.1650391
1188,20.25,-2.5625,8.4375,-0.03564453,0.1064453,1.059082,0.2548828,-0.6118164,-0.175293
1189,13.1875,-3.5625,7.625,-0.07568359,0.1723633,1.075195,0.2495117,-0.6269531,-0.1782227
1190,3.75,-2.4375,9.5625,-0.07568359,0.2260742,1.098633,0.2495117,-0.6269531,-0.1782227
1191,-12.375,-4.375,10.4375,-0.07568359,0.3149414,1.162109,0.2548828,-0.6064453,-0.175293
1192,-29.1875,-4.375,6.4375,-0.08740234,0.3344727,1.185547,0.2548828,-0.6118164,-0.1806641
1193,-36.6875,-3.5,7.625,-0.1196289,0.2299805,1.169922,0.2548828,-0.6118164,-0.1806641
1194,-47.125,-4.375,11.4375,-0.1074219,0.1953125,1.169922,0.2548828,-0.6142578,-0.1782227
1195,-54.6875,-6.25,10.75,-0.1870117,0.2495117,1.245117,0.2548828,-0.6142578,-0.1782227
1196,-63.25,-7.875,18.4375,-0.1430664,0.2998047,1.221191,0.2578125,-0.6166992,-0.175293
1197,-66.8125,-7.3125,2.1875,0.03125,0.09082031,1.229492,0.2495117,-0.5986328,-0.1806641
1198,-51.5,-6.25,2.5,0,-0.08984375,1.217285,0.2495117,-0.5986328,-0.1806641
1199,-45.125,-9.3125,4.6875,-0.05566406,-0.1401367,1.189941,0.2495117,-0.59375,-0.1860352
1200,-30.6875,-7.1875,-0.625,-0.02001953,-0.08251953,1.134277,0.2495117,-0.59375,-0.1860352
1201,-14.4375,-8.125,-2.5,-0.04785156,-0.1015625,1.134277,0.2470703,-0.5986328,-0.1884766
1202,-0.875,-7.5,-0.625,-0.04003906,0.005859375,1.126465,0.2495117,-0.5786133,-0.1860352
1203,14.5625,-8.25,-1.5,-0.05566406,0.09472656,1.14209,0.2495117,-0.5786133,-0.1860352
1204,21.875,-10.0625,-0.1875,-0.01611328,0.2416992,1.185547,0.2495117,-0.59375,-0.1884766
1205,22.75,-11.5,0.9375,0,0.3540039,1.181641,0.2470703,-0.59375,-0.1860352
1206,23.3125,-12.125,-1.625,0.01953125,0.4926758,1.162109,0.2470703,-0.59375,-0.1860352
1207,14.5,-11.8125,-2.125,-0.06347656,0.4462891,1.130371,0.2470703,-0.5913086,-0.1860352
1208,4.375,-11.75,0.25,-0.06787109,0.3540039,1.138184,0.2470703,-0.5913086,-0.1860352
1209,0.25,-12.5625,3,-0.1274414,0.21875,1.09082,0.2416992,-0.59375,-0.1914063
1210,0.6875,-13.5,6,-0.1430664,0.09082031,1.122559,0.2363281,-0.5961914,-0.1860352
1211,0.4375,-14.25,7.6875,-0.1035156,0.1142578,1.126465,0.2363281,-0.5961914,-0.1860352
1212,0.875,-13.6875,6.5,-0.1352539,0.1103516,1.158203,0.2363281,-0.5986328,-0.1938477
1213,1.3125,-14.0625,4.625,-0.1196289,0.03320313,1.11084,0.2363281,-0.5986328,-0.1938477
1214,5.5625,-15,4,-0.1669922,0.02929688,1.126465,0.2231445,-0.5913086,-0.1831055
1215,7.75,-15.875,4.9375,-0.1430664,0.07177734,1.134277,0.2338867,-0.5961914,-0.1860352
1216,8.125,-15.4375,3.5,-0.07177734,0.08349609,1.14209,0.2338867,-0.5961914,-0.1860352
1217,0.6875,-15.9375,12.875,0,0.1875,1.237305,0.2285156,-0.5961914,-0.1884766
1219,-2.625,-10.625,-1.125,0,0.09082031,1.083008,0.230957,-0.6064453,-0.1860352
1220,0.125,-10.1875,-0.625,-0.06787109,-0.1171875,1.094727,0.230957,-0.6064453,-0.1860352
1221,-2.625,-9.3125,24.6875,0.01953125,0.1489258,1.177734,0.230957,-0.5913086,-0.1938477
1222,-0.4375,-8.8125,-0.25,-0.02783203,0.01757813,1.189941,0.230957,-0.5913086,-0.1938477
1223,5.3125,-8,0.5625,-0.02783203,-0.06298828,1.169922,0.2441406,-0.6015625,-0.1938477
1224,9,-8,-1.625,0.03125,0.01367188,1.11084,0.2441406,-0.6015625,-0.1938477
1225,8.0625,-3.5625,-2.75,0.01123047,0.06787109,1.023926,0.2441406,-0.6015625,-0.1938477
1226,13.0625,-6.625,-6.375,0.015625,0.1259766,1.09082,0.2285156,-0.6015625,-0.1831055
1227,13.875,-6.125,-8.4375,0.03955078,0.1450195,1.126465,0.2285156,-0.6015625,-0.1831055
1228,17.875,-6.5625,-11.6875,0.01953125,0.1489258,1.094727,0.2285156,-0.6015625,-0.1831055
1229,19.375,-6.5625,-13.1875,0.07519531,0.1953125,1.122559,0.2202148,-0.6064453,-0.1884766
1230,21.375,-5.6875,-16.625,0.04345703,0.2148438,1.122559,0.2202148,-0.6064453,-0.1884766
1231,19.0625,-5.8125,-18.8125,0.01123047,0.253418,1.09082,0.2202148,-0.6064453,-0.1884766
1232,16.25,-5,-19.875,0.06298828,0.237793,1.106934,0.2285156,-0.6088867,-0.1860352
1233,14.375,-4.8125,-20.9375,0.08691406,0.1645508,1.122559,0.2285156,-0.6088867,-0.1860352
1234,19.0625,-3.1875,-19.875,0.1386719,0.09082031,1.086914,0.2285156,-0.6088867,-0.1860352
1235,25.875,-1.0625,-19.25,0.1469727,0.07568359,1.047363,0.2285156,-0.6088867,-0.1860352
1236,28.5625,-0.8125,-20,0.01953125,0.1762695,1.027832,0.230957,-0.59375,-0.1831055
1237,25.9375,-2.375,-20.625,-0.04785156,0.203125,1.075195,0.230957,-0.59375,-0.1831055
1238,21.875,-2.5,-21.25,0.01953125,0.2299805,1.075195,0.230957,-0.59375,-0.1831055
1239,17.5625,-1.6875,-21.875,-0.0078125,0.1953125,1.075195,0.2363281,-0.6166992,-0.1782227
1240,14.5,-1.375,-21.8125,0.007324219,0.21875,1.086914,0.2363281,-0.6166992,-0.1782227
1241,13,-0.5,-22.125,-0.00390625,0.1992188,1.098633,0.2363281,-0.6166992,-0.1782227
1242,14.5625,0,-23.0625,0.01123047,0.1489258,1.118652,0.2441406,-0.6118164,-0.1782227
1243,17.375,0,-24,-0.00390625,0.1333008,1.181641,0.2441406,-0.6118164,-0.1782227
1244,22.625,0,-25.25,-0.04785156,0.1333008,1.177734,0.2441406,-0.6118164,-0.1782227
1245,29.6875,-0.4375,-26.6875,-0.01611328,0.08740234,1.193848,0.2338867,-0.6088867,-0.1782227
1246,38.25,-1.4375,-27,-0.07568359,0.09863281,1.185547,0.2338867,-0.6088867,-0.1782227
1247,47.5,-2.0625,-27.5,-0.04785156,0.09472656,1.166016,0.2338867,-0.6088867,-0.1782227
1248,57.1875,-2.0625,-27.875,-0.04785156,0.1142578,1.130371,0.2338867,-0.6088867,-0.1782227
1249,66,-2.125,-27.5625,-0.07568359,0.1645508,1.106934,0.2416992,-0.6323242,-0.1806641
1250,72.6875,-1.9375,-25.375,-0.06347656,0.1298828,1.071289,0.2416992,-0.6323242,-0.1806641
1251,75.8125,-1.8125,-24.125,-0.07568359,0.168457,1.047363,0.2416992,-0.6323242,-0.1806641
1252,75,-1.4375,-25.4375,-0.08349609,0.2109375,1.094727,0.2495117,-0.637207,-0.1650391
1253,69.625,-0.5,-30.4375,-0.1630859,0.2802734,1.122559,0.2495117,-0.637207,-0.1650391
1254,67.5,-3.75,-31.9375,-0.1196289,0.1835938,1.169922,0.2495117,-0.637207,-0.1650391
1255,70.75,-4.0625,-34.9375,-0.07958984,0.168457,1.20166,0.2441406,-0.6474609,-0.1518555
1256,61.6875,-5.0625,-42.5,-0.1992188,0.1723633,1.209473,0.2441406,-0.6474609,-0.1518555
1257,61.0625,-10.1875,-40.5625,-0.2905273,0.2109375,1.260742,0.2441406,-0.6474609,-0.1518555
1258,55.5,-12.875,-31.75,-0.1430664,0.2802734,1.260742,0.2470703,-0.6577148,-0.144043
1259,28.3125,-12.125,-45.8125,-0.0078125,0.3266602,1.154297,0.2470703,-0.6577148,-0.144043
1260,18.9375,-20.375,-68.9375,0.01123047,0.1181641,1.015625,0.2470703,-0.6577148,-0.144043
1261,20.5625,-20.125,-67.5625,0,-0.1362305,1.173828,0.2470703,-0.6577148,-0.144043
1262,40.75,-21.3125,-55.8125,0.01953125,-0.1787109,1.189941,0.2548828,-0.6679688,-0.144043
1263,70.1875,-18.625,-61.625,0.02734375,-0.04736328,1.181641,0.2578125,-0.6523438,-0.1279297
1264,89.9375,-17.75,-74.875,-0.07958984,0.005859375,1.14209,0.2578125,-0.6523438,-0.1279297
1265,103,-19.5625,-75.9375,-0.1391602,0.02539063,1.11084,0.2685547,-0.6728516,-0.1386719
1266,111.8125,-20.875,-80.875,-0.1035156,0.1103516,1.075195,0.2631836,-0.6655273,-0.1147461
1267,118,-22.375,-86.0625,-0.1196289,0.1450195,1.063477,0.2631836,-0.6655273,-0.1147461
1268,123.4375,-24.0625,-89.8125,-0.09570313,0.1450195,1.067383,0.2685547,-0.6806641,-0.1123047
1269,130.75,-25.0625,-93.8125,-0.09570313,0.1567383,1.035645,0.2685547,-0.6806641,-0.1123047
1270,138.3125,-26.5,-98.1875,-0.07177734,0.1796875,1.019531,0.2739258,-0.6860352,-0.1069336
1271,144.25,-28.0625,-101.3125,-0.1074219,0.237793,1.05127,0.2817383,-0.6987305,-0.1015625
1272,146.9375,-30,-104.0625,-0.1274414,0.3037109,1.007813,0.2817383,-0.6987305,-0.1015625
1273,145.375,-32.375,-106.25,-0.1474609,0.4194336,1.019531,0.2924805,-0.7163086,-0.09667969
1274,138.9375,-35.3125,-108.25,-0.1235352,0.5043945,1.019531,0.2924805,-0.7163086,-0.09667969
1275,128.5,-38.125,-109.8125,-0.1552734,0.5742188,0.9804688,0.2895508,-0.7192383,-0.07519531
1276,114.375,-41.5,-110.875,-0.1274414,0.6166992,0.984375,0.2978516,-0.7241211,-0.06494141
1277,98.625,-43.875,-111.6875,-0.09960938,0.6279297,0.972168,0.2978516,-0.7241211,-0.06494141
1278,82.25,-45.8125,-112.0625,-0.1035156,0.6318359,0.9208984,0.2978516,-0.7319336,-0.05957031
1279,67.25,-47.5625,-113.625,-0.09960938,0.6552734,0.9487305,0.3056641,-0.7241211,-0.05419922
1280,58.1875,-48.625,-113.5625,-0.07177734,0.6206055,0.972168,0.3056641,-0.7241211,-0.05419922
1281,52.375,-48.625,-113.125,-0.05957031,0.5585938,0.9487305,0.3139648,-0.7192383,-0.05419922
1282,50.1875,-48.375,-110.875,-0.08740234,0.546875,0.9526367,0.3139648,-0.7192383,-0.05419922
1284,48.5625,-47.4375,-109.5625,-0.05566406,0.5390625,0.9448242,0.3325195,-0.7294922,-0.05175781
1285,46.5,-46.4375,-107.75,-0.09130859,0.5161133,0.956543,0.3349609,-0.734375,-0.05419922
1286,45.1875,-45.875,-105.5,-0.1113281,0.5390625,0.9604492,0.3349609,-0.734375,-0.05419922
1287,43.125,-45.1875,-102.4375,-0.1196289,0.5507813,0.9487305,0.3295898,-0.7397461,-0.04101563
1288,35.875,-42.8125,-99.4375,-0.1474609,0.5429688,0.9013672,0.3295898,-0.7397461,-0.04101563
1289,24.3125,-40.625,-96.0625,-0.1552734,0.5507813,0.8417969,0.3432617,-0.7216797,-0.04931641
1290,14.3125,-38.9375,-92.3125,-0.1992188,0.5854492,0.8261719,0.3457031,-0.7163086,-0.03857422
1291,7.6875,-37.5,-88.375,-0.175293,0.6240234,0.8735352,0.3457031,-0.7163086,-0.03857422
1292,4.875,-35.875,-84.3125,-0.230957,0.6513672,0.8852539,0.3510742,-0.7114258,-0.04101563
1293,5.8125,-34.0625,-80,-0.2270508,0.6474609,0.8813477,0.3564453,-0.7089844,-0.04931641
1294,8.3125,-31.1875,-74.375,-0.1948242,0.6318359,0.9169922,0.3564453,-0.7089844,-0.04931641
1295,12.0625,-28.75,-68.3125,-0.1948242,0.6513672,0.9013672,0.3696289,-0.706543,-0.04638672
1296,15.75,-26.875,-62.875,-0.1992188,0.6821289,0.9013672,0.3696289,-0.706543,-0.04638672
1297,17.625,-25.3125,-58.0625,-0.2109375,0.6821289,0.9643555,0.3618164,-0.7089844,-0.04931641
1298,18.3125,-25.5625,-54.25,-0.1870117,0.6821289,0.9208984,0.3725586,-0.706543,-0.03613281
1299,22.375,-26.125,-52.25,-0.2109375,0.6899414,1.043457,0.3725586,-0.706543,-0.03613281
1300,33.1875,-27.0625,-49.625,-0.203125,0.6630859,1,0.3696289,-0.706543,-0.03857422
1301,42.9375,-27.9375,-46,-0.2387695,0.7016602,0.9882813,0.3696289,-0.706543,-0.03857422
1302,52.375,-30.1875,-41.9375,-0.1992188,0.6821289,0.9682617,0.375,-0.7011719,-0.03857422
1303,63.1875,-31.5625,-38.5625,-0.1791992,0.6821289,0.972168,0.3725586,-0.7011719,-0.03613281
1304,68.5,-33.4375,-35.3125,-0.2148438,0.6821289,0.9248047,0.3725586,-0.7011719,-0.03613281
1305,65.625,-35.8125,-33.3125,-0.1831055,0.7128906,0.8930664,0.3696289,-0.7138672,-0.03320313
1306,56.9375,-38,-31.3125,-0.1669922,0.7285156,0.8696289,0.3857422,-0.7192383,-0.04101563
1307,46.5625,-39.25,-29.0625,-0.1791992,0.7094727,0.8457031,0.3857422,-0.7192383,-0.04101563
1308,40.625,-40.1875,-27.1875,-0.175293,0.6821289,0.8144531,0.3725586,-0.7138672,-0.03076172
1309,35.8125,-40.9375,-25.125,-0.1474609,0.6860352,0.7905273,0.3725586,-0.7138672,-0.03076172
1310,32.5625,-41.75,-22.9375,-0.1791992,0.6977539,0.8339844,0.3779297,-0.7192383,-0.02539063
1311,27.25,-43.375,-21.625,-0.1713867,0.6821289,0.8696289,0.3833008,-0.7138672,-0.02294922
1312,21.0625,-44.1875,-19.9375,-0.1235352,0.6938477,0.8735352,0.3833008,-0.7138672,-0.02294922
1313,15.5,-45.375,-18.9375,-0.1630859,0.6318359,0.8891602,0.375,-0.7114258,-0.02539063
1314,12.8125,-47.125,-18.625,-0.1274414,0.6166992,0.9326172,0.375,-0.7114258,-0.02539063
1315,12.875,-48.9375,-18.4375,-0.1391602,0.5664063,0.9604492,0.3696289,-0.7163086,-0.02294922
1316,17.1875,-50.125,-17.6875,-0.1313477,0.5429688,1.031738,0.3725586,-0.7138672,-0.03613281
1317,24.375,-49.6875,-15.875,-0.1552734,0.4736328,0.972168,0.3725586,-0.7138672,-0.03613281
1318,33.0625,-49,-14.125,-0.1274414,0.5043945,0.972168,0.3696289,-0.7138672,-0.03857422
1319,43.125,-46.6875,-12.1875,-0.1513672,0.4853516,0.9052734,0.3588867,-0.706543,-0.02783203
1320,52.5,-45.625,-10.25,-0.09960938,0.5043945,0.8930664,0.3588867,-0.706543,-0.02783203
1321,61.1875,-43.3125,-8.6875,-0.09960938,0.5932617,0.8339844,0.3588867,-0.7265625,-0.02783203
1322,67.375,-41.875,-6.9375,-0.1352539,0.5893555,0.8496094,0.3588867,-0.7265625,-0.02783203
1323,72.375,-40.5625,-5.375,-0.1074219,0.6552734,0.8417969,0.3588867,-0.7265625,-0.02294922
1324,75.1875,-39.5,-3.9375,-0.1430664,0.6704102,0.8735352,0.3671875,-0.7192383,-0.02294922
1325,78,-37.1875,-3,-0.1352539,0.6435547,0.8417969,0.3671875,-0.7192383,-0.02294922
1326,78.9375,-35.125,-1.6875,-0.09570313,0.5854492,0.8144531,0.3671875,-0.7368164,-0.02294922
1327,79.25,-32,0.625,-0.1196289,0.5703125,0.7431641,0.3671875,-0.7368164,-0.02294922
1328,77,-29.6875,2.75,-0.1113281,0.5625,0.6835938,0.3432617,-0.7446289,-0.01513672
1329,77.25,-26,4.875,-0.08349609,0.5742188,0.6362305,0.3432617,-0.7397461,-0.009765625
1330,76.9375,-20.25,7.6875,-0.1035156,0.6665039,0.3793945,0.3432617,-0.7397461,-0.009765625
1331,69.5,-19.875,6.25,-0.05566406,0.8481445,0.4467773,0.3432617,-0.7470703,-0.004394531
1332,47.0625,-23.5,16.9375,-0.00390625,1.223145,0.4702148,0.3378906,-0.7446289,0.008300781
1333,43.125,-22.75,10,-0.1274414,1.041504,0.6206055,0.3378906,-0.7446289,0.008300781
1334,14.9375,-25.8125,6.9375,-0.1669922,1.010742,0.7036133,0.340332,-0.7524414,0.005859375
1335,-7.375,-28.875,4.875,-0.1074219,0.8945313,0.7905273,0.340332,-0.7524414,0.005859375
1336,-20.875,-31.6875,1.875,-0.08740234,0.7016602,0.7983398,0.3378906,-0.7524414,0.008300781
1337,-27.8125,-34.6875,0.5625,-0.09130859,0.527832,0.7866211,0.340332,-0.7573242,-0.004394531
1338,-31.0625,-35.4375,1.125,-0.1035156,0.4926758,0.7270508,0.340332,-0.7573242,-0.004394531
1339,-35.9375,-36.3125,2.5625,-0.1074219,0.5507813,0.699707,0.3457031,-0.7548828,0.0004882813
1340,-48.375,-36.8125,2.8125,-0.08349609,0.6513672,0.699707,0.3457031,-0.7548828,0.0004882813
1341,-62.8125,-37.625,1.625,-0.07958984,0.7441406,0.6835938,0.3325195,-0.75,-0.01220703
1342,-84.125,-38.875,-0.9375,-0.09130859,0.7592773,0.7114258,0.3295898,-0.7446289,-0.02001953
1343,-104.875,-40.75,-3.0625,-0.1196289,0.8056641,0.7587891,0.3295898,-0.7446289,-0.02001953
1344,-115,-41,-5.1875,-0.07177734,0.7592773,0.8261719,0.3242188,-0.7446289,-0.02001953
1345,-118.4375,-40,-6.3125,-0.09960938,0.7167969,0.9052734,0.3295898,-0.7319336,-0.04931641
1346,-115.1875,-39.8125,-6.75,-0.09960938,0.6396484,0.9287109,0.3295898,-0.7319336,-0.04931641
1347,-104.0625,-39,-6.125,-0.1074219,0.5776367,1.007813,0.3164063,-0.7265625,-0.05419922
1349,-86.8125,-37.1875,-6.25,-0.1074219,0.5239258,1.039551,0.3164063,-0.7265625,-0.05419922
1350,-66.9375,-34.4375,-5.5,-0.08740234,0.5004883,1.035645,0.3271484,-0.7241211,-0.05712891
1351,-47,-31.375,-4.8125,-0.05566406,0.5083008,0.984375,0.3164063,-0.7138672,-0.05957031
1352,-31.5,-28.625,-4.375,-0.06347656,0.5200195,0.9487305,0.3164063,-0.7138672,-0.05957031
1353,-24.125,-26.5,-4.125,-0.06787109,0.5429688,0.9130859,0.3295898,-0.6987305,-0.06738281
1354,-24.1875,-24.4375,-4.875,-0.08349609,0.612793,0.9804688,0.3295898,-0.6987305,-0.06738281
1355,-27.625,-22.9375,-6.625,-0.09130859,0.6318359,1.059082,0.3217773,-0.7114258,-0.06494141
1356,-31.5,-21.5625,-8.625,-0.09960938,0.5742188,1.079102,0.3188477,-0.7089844,-0.08056641
1357,-38,-20.8125,-10.75,-0.08349609,0.5664063,1.075195,0.3188477,-0.7089844,-0.08056641
1358,-49.125,-20.6875,-12.875,-0.1074219,0.612793,1.083008,0.3188477,-0.7036133,-0.08349609
1359,-61.875,-21,-16.1875,-0.06787109,0.6206055,1.083008,0.3188477,-0.6962891,-0.08056641
1360,-73.4375,-21.4375,-19.4375,-0.09570313,0.5932617,1.031738,0.3188477,-0.6962891,-0.08056641
1361,-85.8125,-20.625,-22.375,-0.1035156,0.5351563,0.984375,0.3295898,-0.6884766,-0.09375
1362,-95.875,-20.4375,-24.25,-0.09960938,0.5161133,0.9604492,0.3295898,-0.6884766,-0.09375
1363,-104.875,-18.375,-25.5,-0.1235352,0.5043945,0.9052734,0.3217773,-0.6728516,-0.1015625
1364,-115.25,-18.625,-26.0625,-0.1391602,0.5507813,0.9326172,0.3164063,-0.6728516,-0.09912109
1365,-124.1875,-18.875,-26.5625,-0.1430664,0.5893555,1.003906,0.3164063,-0.6728516,-0.09912109
1366,-130.5,-19.25,-27.25,-0.2148438,0.5932617,1.059082,0.3295898,-0.6577148,-0.1201172
1367,-133.125,-19.9375,-27.625,-0.2109375,0.546875,1.083008,0.3295898,-0.6577148,-0.1201172
1368,-129.125,-20.8125,-27.25,-0.1669922,0.4736328,1.150391,0.3164063,-0.6450195,-0.1308594
1369,-118.125,-21.1875,-27,-0.1791992,0.4194336,1.173828,0.3217773,-0.6396484,-0.1357422
1370,-102.375,-20.375,-25.6875,-0.1391602,0.3383789,1.177734,0.3217773,-0.6396484,-0.1357422
1371,-84.4375,-19.25,-25.625,-0.1035156,0.2880859,1.166016,0.3164063,-0.6220703,-0.144043
1372,-65.9375,-17.5625,-25.875,-0.1035156,0.2148438,1.154297,0.3242188,-0.6166992,-0.1464844
1373,-48.625,-16.625,-27.1875,-0.05957031,0.2299805,1.071289,0.3242188,-0.6166992,-0.1464844
1374,-33.875,-14.75,-28,-0.03564453,0.1796875,1.039551,0.3188477,-0.6088867,-0.1518555
1375,-23.375,-13.5,-29.5625,-0.06347656,0.1762695,1.015625,0.3188477,-0.6088867,-0.1518555
1376,-17.0625,-12.5625,-31.1875,-0.05175781,0.1875,0.9526367,0.3139648,-0.6118164,-0.159668
1377,-13,-7.625,-32.6875,-0.04785156,0.1645508,0.9013672,0.3242188,-0.6015625,-0.1572266
1378,-21.625,-1.6875,-35.0625,-0.02392578,0.1333008,0.7749023,0.3242188,-0.6015625,-0.1572266
1379,-34.375,2.125,-34.4375,-0.05175781,0.1875,0.7626953,0.3217773,-0.6015625,-0.1572266
1380,-36.75,6.375,-35.1875,-0.05957031,0.2612305,0.7788086,0.3217773,-0.6015625,-0.1572266
1381,-34.125,10.375,-35.25,-0.1035156,0.3344727,0.8496094,0.3271484,-0.5961914,-0.1621094
1382,-24.875,13.5,-34.9375,-0.1430664,0.3188477,0.9013672,0.3271484,-0.5961914,-0.1650391
1383,-8.0625,14.75,-34.9375,-0.1552734,0.2456055,0.9604492,0.3271484,-0.5961914,-0.1650391
1384,11.125,15.625,-35.125,-0.1513672,0.2109375,0.9604492,0.3242188,-0.5888672,-0.1728516
1385,31.625,17.125,-35.75,-0.1430664,0.1953125,1.015625,0.3349609,-0.5888672,-0.1621094
1386,50.3125,17.9375,-36.5,-0.1196289,0.203125,1.019531,0.3349609,-0.5888672,-0.1621094
1387,65.9375,19.1875,-37.6875,-0.04785156,0.2651367,0.9882813,0.3378906,-0.5888672,-0.1728516
1388,75,20.875,-39.3125,-0.06787109,0.3149414,0.940918,0.3378906,-0.5888672,-0.1728516
1389,80.625,22.6875,-40.3125,-0.06347656,0.3227539,0.9169922,0.340332,-0.59375,-0.159668
1390,83.8125,24.3125,-41.375,-0.03173828,0.3691406,0.9208984,0.3510742,-0.6015625,-0.1411133
1391,83.375,25.5625,-41.3125,-0.03173828,0.4155273,0.9365234,0.3510742,-0.6015625,-0.1411133
1392,80.0625,26.5,-41.8125,-0.04785156,0.3999023,0.9682617,0.3618164,-0.6040039,-0.1386719
1393,73.375,26.9375,-42.3125,-0.04785156,0.4736328,1.015625,0.3618164,-0.6040039,-0.1386719
1394,66.5625,27.8125,-43.625,-0.07177734,0.5351563,1.075195,0.3540039,-0.6118164,-0.1386719
1395,60.25,28.1875,-45.3125,-0.09960938,0.527832,1.094727,0.3588867,-0.6191406,-0.1386719
1396,53.875,28.625,-47.0625,-0.09130859,0.512207,1.126465,0.3588867,-0.6191406,-0.1386719
1397,49.5,29.875,-49.5625,-0.1113281,0.5546875,1.162109,0.375,-0.6166992,-0.1333008
1398,49.125,32,-52.5625,-0.09130859,0.527832,1.169922,0.3803711,-0.6220703,-0.1230469
1399,50.625,33.875,-53.5,-0.1669922,0.5161133,1.154297,0.3803711,-0.6220703,-0.1230469
1400,50.875,35.375,-54,-0.1948242,0.5546875,1.189941,0.3833008,-0.6293945,-0.1176758
1401,46.375,37.1875,-54.5,-0.2148438,0.612793,1.158203,0.3833008,-0.6293945,-0.1176758
1402,36.9375,37.9375,-56,-0.21875,0.6665039,1.209473,0.3803711,-0.6191406,-0.1123047
1403,26.125,37.5625,-58.4375,-0.2587891,0.6860352,1.217285,0.3964844,-0.6118164,-0.1069336
1404,14.0625,37.125,-61.1875,-0.2587891,0.6743164,1.217285,0.3964844,-0.6118164,-0.1069336
1405,3.8125,35.8125,-63.5,-0.2270508,0.7128906,1.225098,0.4042969,-0.6220703,-0.1044922
1406,-5.625,34.4375,-65.5,-0.2744141,0.7246094,1.256836,0.4042969,-0.6220703,-0.1044922
1407,-12.25,32.375,-67.3125,-0.2666016,0.7285156,1.25293,0.4125977,-0.6191406,-0.1044922
1408,-18.5625,28.5,-68.625,-0.2905273,0.7866211,1.288574,0.4204102,-0.6142578,-0.09912109
1409,-26.3125,24.625,-69.625,-0.2983398,0.7866211,1.272949,0.4204102,-0.6142578,-0.09912109
1410,-34.6875,20.625,-70.0625,-0.2744141,0.8134766,1.217285,0.4072266,-0.6064453,-0.09912109
1411,-41.6875,15.8125,-71.5625,-0.3183594,0.8056641,1.20166,0.4287109,-0.6064453,-0.09912109
1412,-46.5625,10.4375,-73.625,-0.3027344,0.7553711,1.173828,0.4287109,-0.6064453,-0.09912109
1414,-47.1875,6,-75.5625,-0.2788086,0.7128906,1.162109,0.4418945,-0.5888672,-0.1044922
1415,-43.25,0.9375,-77.5625,-0.3066406,0.7055664,1.134277,0.4418945,-0.5888672,-0.1044922
1416,-35.125,-3.875,-80.75,-0.2944336,0.6782227,1.075195,0.4394531,-0.5708008,-0.1098633
1417,-24.625,-7.6875,-82.5625,-0.2744141,0.6318359,1.043457,0.4365234,-0.5732422,-0.1044922
1418,-12.5,-11.25,-84.0625,-0.2587891,0.6049805,1,0.4365234,-0.5732422,-0.1044922
1419,-1.75,-14.25,-85.625,-0.2509766,0.612793,0.9287109,0.4394531,-0.5756836,-0.1069336
1420,7.3125,-16.5625,-86.9375,-0.2387695,0.5893555,0.8813477,0.4394531,-0.5756836,-0.1069336
1421,14.9375,-18,-87.6875,-0.2148438,0.581543,0.8300781,0.4526367,-0.5605469,-0.1069336
1422,24.4375,-17.9375,-88.625,-0.2070313,0.5854492,0.7548828,0.449707,-0.5527344,-0.1069336
1423,32.375,-16.1875,-88.875,-0.1669922,0.6088867,0.6757813,0.449707,-0.5527344,-0.1069336
1424,36.1875,-14.3125,-88.5,-0.1430664,0.6240234,0.6401367,0.4604492,-0.5551758,-0.1069336
1425,38.375,-10.8125,-88.625,-0.1313477,0.6435547,0.5532227,0.46875,-0.5527344,-0.1069336
1426,38.1875,-7.1875,-89.25,-0.1352539,0.6396484,0.4902344,0.46875,-0.5527344,-0.1069336
1427,37.375,-3.125,-89.6875,-0.1074219,0.6166992,0.5136719,0.4658203,-0.5424805,-0.1015625
1428,39.6875,1.75,-89.6875,-0.1074219,0.5742188,0.5219727,0.4658203,-0.5424805,-0.1015625
1429,49.5,7.6875,-89.1875,-0.1152344,0.5390625,0.5258789,0.4633789,-0.550293,-0.1069336
1430,63.4375,14.5625,-88.375,-0.09960938,0.5390625,0.5097656,0.4741211,-0.5322266,-0.1044922
1431,76.125,21.1875,-86.5625,-0.05957031,0.5507813,0.5058594,0.4741211,-0.5322266,-0.1044922
1432,89.25,27.625,-84.5625,-0.05566406,0.597168,0.5019531,0.484375,-0.5375977,-0.09667969
1433,101.1875,33.75,-83.0625,-0.03564453,0.6206055,0.4663086,0.484375,-0.5375977,-0.09667969
1434,112.5625,41.125,-81.1875,-0.04003906,0.6088867,0.4506836,0.484375,-0.5449219,-0.09912109
1435,123.875,47.5625,-79.25,-0.02783203,0.6435547,0.4345703,0.4873047,-0.5478516,-0.0859375
1436,132.25,54.625,-77.5625,-0.0078125,0.6279297,0.4150391,0.4873047,-0.5478516,-0.0859375
1437,138.375,60.875,-75.875,-0.02783203,0.6435547,0.3911133,0.4980469,-0.5449219,-0.08349609
1438,148.625,66,-74.1875,-0.03173828,0.5893555,0.3911133,0.503418,-0.5527344,-0.05419922
1439,162.5,71.625,-72.3125,-0.02783203,0.527832,0.387207,0.503418,-0.5527344,-0.05419922
1440,179.875,78.375,-70.875,-0.02783203,0.5546875,0.3994141,0.5166016,-0.5527344,-0.05175781
1441,200.75,84.375,-70,-0.03564453,0.597168,0.3515625,0.5166016,-0.5527344,-0.05175781
1442,218.125,89.8125,-68.9375,-0.05175781,0.612793,0.3398438,0.5219727,-0.5629883,-0.03613281
1443,231.1875,93.75,-67.25,-0.09130859,0.6630859,0.284668,0.5405273,-0.5654297,-0.01757813
1444,243.75,97.0625,-65.0625,-0.1313477,0.6821289,0.2729492,0.5405273,-0.5654297,-0.01757813
1445,255.25,100.5625,-62.875,-0.1352539,0.7285156,0.2294922,0.5380859,-0.5786133,-0.01220703
1446,260.4375,102.4375,-59.1875,-0.1513672,0.7788086,0.2607422,0.5380859,-0.5786133,-0.01220703
1447,264.1875,103.625,-57.125,-0.1669922,0.8676758,0.2211914,0.5541992,-0.5961914,0.03710938
1448,264.625,103.3125,-54.125,-0.1831055,0.8833008,0.2294922,0.5727539,-0.5913086,0.04248047
1449,264.5,102.625,-48.6875,-0.190918,0.887207,0.2412109,0.5727539,-0.5913086,0.04248047
1450,265.625,101.75,-43.5,-0.1992188,0.8833008,0.2250977,0.5698242,-0.6064453,0.07958984
1451,270.4375,102.125,-37.4375,-0.1630859,0.8945313,0.2451172,0.5859375,-0.6191406,0.1005859
1452,276.4375,103,-32.125,-0.1552734,0.9448242,0.2133789,0.5859375,-0.6191406,0.1005859
1453,283.6875,104.3125,-29.4375,-0.1791992,0.9794922,0.2016602,0.5859375,-0.6118164,0.1293945
1454,283.875,106.5625,-27.75,-0.1791992,0.9643555,0.1738281,0.5859375,-0.6118164,0.1293945
1455,284.5625,108.25,-22.9375,-0.1713867,0.9643555,0.2373047,0.5942383,-0.6245117,0.1635742
1456,285.4375,110.6875,-19,-0.1713867,0.9023438,0.2016602,0.5942383,-0.6293945,0.1899414
1457,285,112.875,-13,-0.2109375,0.972168,0.1977539,0.5942383,-0.6293945,0.1899414
1458,281.3125,112.6875,-7.375,-0.2744141,1.037598,0.07910156,0.5942383,-0.6293945,0.2109375
1459,250.8125,106.875,4.0625,-0.3183594,1.408691,0.06347656,0.5942383,-0.6293945,0.2109375
1460,186.3125,96.8125,1.125,-0.4257813,1.543945,0.09472656,0.5859375,-0.6347656,0.2426758
1461,115.625,82.4375,0.125,-0.5014648,1.455078,0.2529297,0.5996094,-0.637207,0.269043
1462,65.875,70.8125,4.125,-0.4418945,1.215332,0.2646484,0.5996094,-0.637207,0.269043
1463,42.1875,62.875,4.5625,-0.3823242,1.018555,0.3476563,0.5942383,-0.6347656,0.2768555
1464,40.9375,59.1875,5.5625,-0.3583984,0.7827148,0.2729492,0.5888672,-0.6245117,0.2871094
1465,59.6875,59.125,7.75,-0.3183594,0.6899414,0.2490234,0.5888672,-0.6245117,0.2871094
1466,85.8125,61.1875,8.4375,-0.2626953,0.7324219,0.1186523,0.5859375,-0.6245117,0.2924805
1467,108,64.5625,8.4375,-0.21875,0.8095703,0,0.5859375,-0.6245117,0.2924805
1468,114.5625,65.0625,6.3125,-0.1630859,0.90625,0.01171875,0.5913086,-0.6396484,0.3056641
1469,117.75,66.4375,2.9375,-0.1074219,0.8945313,-0.07861328,0.578125,-0.6323242,0.3164063
1470,121.375,74,5.25,-0.190918,1.00293,-0.1142578,0.578125,-0.6323242,0.3164063
1471,111.0625,79.4375,5.625,-0.3144531,1.130371,-0.1416016,0.5859375,-0.6293945,0.3320313
1472,86.6875,81.9375,5.75,-0.4736328,1.223145,-0.09033203,0.5859375,-0.6293945,0.3320313
