Packet number,Gyroscope X (deg/s),Gyroscope Y (deg/s),Gyroscope Z (deg/s),Accelerometer X (g),Accelerometer Y (g),Accelerometer Z (g),Magnetometer X (G),Magnetometer Y (G),Magnetometer Z (G)
114,3.4375,-4.6875,-6.4375,0.1030273,-0.09375,1.213379,0.2788086,-0.15625,-0.2202148
115,12.5,-27.1875,-11.25,0.1547852,-0.03613281,1.213379,0.265625,-0.1640625,-0.2124023
116,9,-25,-8.9375,0.1665039,-0.04003906,1.225098,0.2548828,-0.1513672,-0.2124023
117,6.3125,-22.0625,-6.625,0.1547852,-0.01269531,1.185547,0.2548828,-0.1513672,-0.2124023
118,4.3125,-20.25,-4.625,0.1386719,-0.01660156,1.181641,0.2470703,-0.15625,-0.2255859
119,1.3125,-19.6875,-3.4375,0.1586914,-0.01269531,1.098633,0.2470703,-0.15625,-0.2255859
120,-1.0625,-17.8125,-2.1875,0.1748047,-0.05908203,1.134277,0.2495117,-0.1616211,-0.2280273
121,-4,-14.375,-0.75,0.1704102,-0.02050781,1.106934,0.2441406,-0.1616211,-0.2226563
122,-5.375,-11.6875,1,0.1704102,-0.05908203,1.035645,0.2441406,-0.1616211,-0.2226563
123,-3.4375,-10.25,2.125,0.1508789,-0.04736328,1.059082,0.2338867,-0.1586914,-0.2148438
124,1.3125,-10.1875,3.6875,0.1191406,-0.04394531,0.9960938,0.2338867,-0.1586914,-0.2148438
125,6.3125,-11.3125,4.4375,0.1508789,-0.04394531,1.003906,0.2363281,-0.1665039,-0.230957
126,12.3125,-16,4.5,0.1547852,-0.05517578,1.027832,0.2387695,-0.1713867,-0.2280273
127,16.375,-18.125,4.625,0.1625977,-0.04394531,1.059082,0.2387695,-0.1713867,-0.2280273
128,17.6875,-19.125,5,0.1508789,-0.0009765625,1.063477,0.2387695,-0.1713867,-0.2280273
129,16.875,-17.375,4.875,0.1469727,-0.02832031,1.154297,0.2285156,-0.1640625,-0.2280273
130,13.875,-14,5.0625,0.1547852,-0.04003906,1.158203,0.2285156,-0.1640625,-0.2280273
131,10.1875,-11.875,5.375,0.1586914,-0.0009765625,1.173828,0.2285156,-0.1640625,-0.2280273
132,7.6875,-9.9375,5.5625,0.1508789,-0.01269531,1.173828,0.2285156,-0.1640625,-0.2280273
133,7.0625,-8.9375,5.875,0.1386719,-0.04003906,1.150391,0.2255859,-0.1689453,-0.2280273
134,8.75,-9.625,6.4375,0.1269531,0.001953125,1.154297,0.2255859,-0.1689453,-0.2280273
135,12.1875,-13.375,6.5,0.1469727,-0.01660156,1.162109,0.2255859,-0.1689453,-0.2280273
136,14.75,-17.1875,6.625,0.1069336,0.005859375,1.138184,0.2363281,-0.1665039,-0.2226563
137,16.125,-19.125,6.6875,0.1191406,0.03320313,1.162109,0.2363281,-0.1665039,-0.2226563
138,15.5625,-17.9375,6.5625,0.1386719,0.005859375,1.177734,0.2363281,-0.1665039,-0.2226563
139,13.375,-15.9375,6.625,0.1308594,0.02148438,1.126465,0.2285156,-0.1791992,-0.2333984
140,11.5625,-13.8125,6,0.1704102,0.001953125,1.138184,0.2285156,-0.1791992,-0.2333984
141,9.8125,-12.0625,5.625,0.1069336,0.005859375,1.134277,0.2285156,-0.1791992,-0.2333984
142,8.875,-10.4375,5,0.1269531,0.001953125,1.09082,0.2255859,-0.1791992,-0.230957
143,9.375,-10.125,4.5625,0.1469727,0.02148438,1.059082,0.2255859,-0.1791992,-0.230957
144,9.5625,-11.4375,3.9375,0.1547852,-0.0009765625,1.075195,0.2255859,-0.1791992,-0.230957
145,9.9375,-12.125,4.125,0.1625977,0.009765625,1.083008,0.2255859,-0.1791992,-0.230957
146,10,-12.125,5.0625,0.1748047,0.04101563,1.086914,0.2202148,-0.1845703,-0.2280273
147,9.125,-12.625,6.0625,0.1665039,0.001953125,1.106934,0.2202148,-0.1845703,-0.2280273
148,9.3125,-12.0625,6.375,0.1625977,0.02929688,1.126465,0.2202148,-0.1845703,-0.2280273
149,9.3125,-11.4375,6.375,0.1865234,-0.0009765625,1.130371,0.2231445,-0.1816406,-0.2333984
150,8.875,-10.25,6.25,0.1865234,0.02929688,1.11084,0.2177734,-0.1845703,-0.2358398
151,8.5,-9.75,6.5,0.1748047,0.01367188,1.086914,0.2177734,-0.1845703,-0.2358398
152,7.5625,-9.375,7.1875,0.1704102,0.02148438,1.138184,0.2148438,-0.1845703,-0.2358398
153,6.5625,-7.8125,7.5625,0.1826172,0.02929688,1.154297,0.2148438,-0.1845703,-0.2358398
154,5.9375,-6.1875,8.0625,0.1586914,-0.008789063,1.130371,0.2231445,-0.1948242,-0.2387695
155,5.4375,-4.9375,7.75,0.1547852,0.02539063,1.106934,0.2070313,-0.1894531,-0.2358398
156,5,-2.8125,7.75,0.1748047,-0.008789063,1.102539,0.2070313,-0.1894531,-0.2358398
157,4.4375,-0.3125,7,0.1943359,-0.004882813,1.079102,0.2202148,-0.1918945,-0.230957
158,4.125,1.5625,6.9375,0.1943359,0.009765625,1.063477,0.2202148,-0.1918945,-0.230957
159,3.875,3.375,6.625,0.2382813,0.02539063,1.083008,0.2148438,-0.1972656,-0.230957
160,3.875,5,6.6875,0.206543,0.01367188,1.086914,0.2124023,-0.1894531,-0.2358398
161,4.1875,5.6875,6.75,0.206543,0.01367188,1.130371,0.2124023,-0.1894531,-0.2358398
162,5.125,6.9375,7,0.2104492,-0.0009765625,1.146484,0.2148438,-0.1918945,-0.2387695
163,7.625,6,7.5625,0.2143555,0.009765625,1.118652,0.2124023,-0.199707,-0.2358398
164,9.25,3.8125,7.5,0.206543,-0.01660156,1.094727,0.2124023,-0.199707,-0.2358398
165,8.5,2,7.25,0.222168,-0.02441406,1.162109,0.2202148,-0.1894531,-0.2358398
166,8.625,2.8125,6.6875,0.2104492,-0.008789063,1.181641,0.2202148,-0.1894531,-0.2358398
167,3.1875,5.625,7,0.1943359,-0.008789063,1.193848,0.2148438,-0.1948242,-0.2387695
168,5.8125,9.5,5.5,0.2304688,-0.004882813,1.193848,0.2231445,-0.2021484,-0.2358398
169,4.25,7.25,3.625,0.2265625,-0.02050781,1.14209,0.2231445,-0.2021484,-0.2358398
170,-1.4375,5.8125,3.375,0.1987305,0.01757813,1.173828,0.2231445,-0.2050781,-0.2358398
171,-1.0625,3.9375,2.3125,0.2265625,-0.03222656,1.11084,0.2231445,-0.2050781,-0.2358398
172,-1.25,3.375,2.3125,0.2026367,0.009765625,1.146484,0.2202148,-0.2021484,-0.2333984
173,-3.0625,3.5625,1.1875,0.1826172,-0.01269531,1.098633,0.2231445,-0.2021484,-0.2333984
174,-2.8125,3.375,1.375,0.1904297,-0.01269531,1.154297,0.2231445,-0.2021484,-0.2333984
175,-2.1875,2.75,2.25,0.2265625,-0.02441406,1.122559,0.2231445,-0.2021484,-0.2387695
176,0,2.125,1.75,0.1826172,0.001953125,1.114746,0.2148438,-0.1894531,-0.2387695
177,2.25,1.8125,2.25,0.2026367,-0.008789063,1.102539,0.2148438,-0.1894531,-0.2387695
179,4.3125,2.5625,2.8125,0.2182617,-0.01660156,1.086914,0.2041016,-0.1918945,-0.2333984
180,7.0625,2.3125,1.875,0.2182617,-0.0009765625,1.118652,0.2041016,-0.1918945,-0.2333984
181,10,2.125,2.5,0.222168,0.02148438,1.106934,0.2231445,-0.1918945,-0.230957
182,7.0625,2.5,2.625,0.234375,0.009765625,1.126465,0.2231445,-0.2099609,-0.230957
183,-4,1.5,0.9375,0.2265625,-0.004882813,1.063477,0.2231445,-0.2099609,-0.230957
184,-76.3125,-10.375,-7.1875,0.1469727,-0.09375,0.9960938,0.2255859,-0.2124023,-0.2387695
185,-55.3125,9.75,-0.5625,0.1108398,0.02929688,1.462402,0.2255859,-0.2124023,-0.2387695
186,4,20.875,-0.875,0.1865234,0.02539063,1.205566,0.2231445,-0.1870117,-0.2280273
187,-5.25,6.25,-3.375,0.2143555,0.01757813,1,0.2231445,-0.1918945,-0.230957
188,-25.375,-5.1875,-5.6875,0.1987305,0.01757813,1.122559,0.2231445,-0.1918945,-0.230957
189,-18.125,-2.4375,-4.375,0.1547852,-0.03613281,1.241211,0.2202148,-0.1948242,-0.2333984
190,-11.625,-0.125,-3.625,0.1787109,0.01757813,1.154297,0.2338867,-0.1918945,-0.2333984
191,-12.4375,-0.875,-3.125,0.1787109,0.005859375,1.138184,0.2338867,-0.1918945,-0.2333984
192,-11.625,-1.6875,-1.1875,0.222168,0.02539063,1.098633,0.2285156,-0.1767578,-0.230957
193,-7.1875,-4.875,0.5625,0.2421875,-0.004882813,1.102539,0.2285156,-0.1767578,-0.230957
194,-3.5,-8.125,3.9375,0.2265625,0.02539063,1.094727,0.2124023,-0.1767578,-0.2255859
195,2.5625,-14.1875,6.8125,0.2143555,0.009765625,1.122559,0.2148438,-0.1816406,-0.2358398
196,9.5625,-22.5625,9.25,0.2143555,0.02929688,1.102539,0.2148438,-0.1816406,-0.2358398
197,10.875,-28.75,11.0625,0.2143555,0.03320313,1.138184,0.2231445,-0.1894531,-0.2358398
198,13.25,-29.5625,11.75,0.1665039,0.03320313,1.154297,0.2231445,-0.1894531,-0.2358398
199,7.375,-28,16.25,0.1943359,-0.01269531,1.185547,0.2255859,-0.1816406,-0.2333984
200,2.9375,-22.1875,19.375,0.1943359,-0.004882813,1.189941,0.2202148,-0.1816406,-0.230957
201,-2.75,-17.6875,21.4375,0.2460938,0.009765625,1.181641,0.2202148,-0.1816406,-0.230957
202,-10,-14.4375,22,0.234375,-0.004882813,1.154297,0.2231445,-0.1845703,-0.2280273
203,-14.9375,-12.25,21.5625,0.2304688,0.01367188,1.126465,0.2094727,-0.1845703,-0.230957
204,-16.375,-10.5625,22,0.2182617,0.01367188,1.130371,0.2094727,-0.1845703,-0.230957
205,-15.8125,-11.375,21.9375,0.2504883,-0.03613281,1.09082,0.2094727,-0.1791992,-0.2280273
206,-14.8125,-13.0625,21.1875,0.2304688,-0.0009765625,1.059082,0.2094727,-0.1791992,-0.2280273
207,-6.375,-15,18.9375,0.2382813,-0.008789063,1.039551,0.2124023,-0.1870117,-0.2387695
208,-1.5625,-17.625,15.3125,0.234375,-0.02832031,1.047363,0.2094727,-0.1816406,-0.2387695
209,0.9375,-17.875,12.75,0.2382813,-0.02050781,1.079102,0.2094727,-0.1816406,-0.2387695
210,3.125,-16.5625,10.6875,0.2504883,-0.02050781,1.09082,0.2070313,-0.1791992,-0.2387695
211,4,-15.3125,8.5625,0.2421875,0.005859375,1.09082,0.2070313,-0.1791992,-0.2387695
212,3.8125,-13.375,8.4375,0.2421875,-0.004882813,1.122559,0.2124023,-0.1767578,-0.2280273
213,2.3125,-10.5,8.8125,0.2265625,-0.02050781,1.094727,0.2016602,-0.1845703,-0.230957
214,3,-10.875,10.5,0.2265625,-0.004882813,1.146484,0.2016602,-0.1845703,-0.230957
215,1,-10.125,11.8125,0.2900391,0.01757813,1.150391,0.2124023,-0.1845703,-0.2280273
216,-0.875,-9.9375,15.625,0.2783203,0.01367188,1.14209,0.2041016,-0.1816406,-0.2412109
217,-4.3125,-9.1875,19.5625,0.2939453,0.02929688,1.130371,0.2041016,-0.1816406,-0.2412109
218,-7.125,-5.625,23.1875,0.3139648,0.04443359,1.154297,0.2094727,-0.1948242,-0.2333984
219,-9.625,-1.9375,25.75,0.2583008,0.05224609,1.09082,0.2094727,-0.1948242,-0.2333984
220,-10.5,-0.0625,27.1875,0.2700195,0.02148438,1.122559,0.2041016,-0.1845703,-0.2202148
221,-8.8125,0.5,25.3125,0.3017578,0.01757813,1.059082,0.2041016,-0.1845703,-0.2358398
222,-6.6875,-1.625,23.25,0.2861328,0.001953125,1.043457,0.2041016,-0.1845703,-0.2358398
223,-5.0625,-3,21.25,0.2504883,0.01367188,1.019531,0.2041016,-0.1845703,-0.2255859
224,-4.9375,-1.8125,20.375,0.2978516,-0.04394531,1.031738,0.2041016,-0.1845703,-0.2255859
225,-4.1875,0.5625,22.3125,0.2822266,-0.04736328,1.086914,0.2041016,-0.1767578,-0.230957
226,-1.5,0.5625,26.5625,0.262207,-0.02050781,1.047363,0.2041016,-0.1791992,-0.2412109
227,6.0625,-5.25,32.375,0.2504883,-0.0009765625,1.035645,0.2041016,-0.1791992,-0.2412109
228,15.9375,-13.125,39.4375,0.2739258,-0.004882813,1.086914,0.2070313,-0.1918945,-0.230957
229,22.25,-19.5625,46.9375,0.2861328,0.009765625,1.150391,0.2202148,-0.1816406,-0.2387695
230,19.25,-22.25,54.125,0.2783203,-0.03222656,1.221191,0.2202148,-0.1816406,-0.2387695
231,11.1875,-20.9375,59.9375,0.2304688,0.001953125,1.3125,0.2094727,-0.1894531,-0.230957
232,4.4375,-16.5625,62.9375,0.262207,0.02929688,1.249023,0.2094727,-0.1894531,-0.230957
233,1.8125,-13.75,62.9375,0.2460938,-0.03613281,1.249023,0.2041016,-0.1894531,-0.2436523
234,-2,-11.3125,61.6875,0.2421875,0.001953125,1.237305,0.1962891,-0.1845703,-0.2333984
235,-3.625,-13,60.4375,0.2739258,-0.02050781,1.166016,0.1962891,-0.1845703,-0.2333984
236,-1.625,-15.4375,59.3125,0.2783203,-0.02832031,1.14209,0.2094727,-0.1870117,-0.2358398
237,2.5625,-16.625,59.875,0.2861328,-0.04394531,1.14209,0.2094727,-0.1870117,-0.2358398
238,7.8125,-15.6875,62.4375,0.3300781,-0.04736328,1.071289,0.2094727,-0.1918945,-0.2333984
239,13.75,-17.4375,67.375,0.3579102,-0.01660156,1,0.2016602,-0.1948242,-0.230957
240,25.75,-26.9375,74.0625,0.4135742,-0.04736328,0.9804688,0.2016602,-0.1948242,-0.230957
241,44,-43.375,81.75,0.3618164,0.005859375,0.9169922,0.2041016,-0.199707,-0.2358398
242,68.375,-73.25,88.6875,0.3339844,-0.0009765625,0.8261719,0.2070313,-0.199707,-0.246582
244,99.9375,-106.9375,93.3125,0.3339844,-0.008789063,0.8144531,0.2070313,-0.199707,-0.246582
245,128.4375,-129.625,96.3125,0.3735352,0.01757813,0.8735352,0.190918,-0.2075195,-0.2358398
246,145.125,-137.875,99.4375,0.3417969,0.02929688,0.9169922,0.190918,-0.2075195,-0.2358398
247,150.8125,-130.375,100.25,0.3618164,0.009765625,0.972168,0.1777344,-0.2250977,-0.2490234
248,147.4375,-117,99.0625,0.3535156,-0.01660156,0.9287109,0.1640625,-0.2456055,-0.2436523
249,140.5625,-106.125,96.875,0.3178711,-0.02050781,0.8417969,0.1640625,-0.2456055,-0.2436523
250,137.3125,-97,93.8125,0.3256836,-0.06689453,0.7587891,0.1586914,-0.2714844,-0.262207
251,142.8125,-93.25,91.5625,0.2861328,-0.04394531,0.7036133,0.1586914,-0.2714844,-0.262207
252,151.375,-95.75,89,0.2939453,-0.04736328,0.7036133,0.1484375,-0.2739258,-0.2519531
253,159.4375,-98.875,83.1875,0.3061523,-0.0009765625,0.7231445,0.1323242,-0.3046875,-0.2543945
254,162.375,-98.8125,72.8125,0.2978516,0.04833984,0.7905273,0.1323242,-0.3046875,-0.2543945
255,157.875,-91.25,61.25,0.262207,0.07568359,0.9526367,0.1108398,-0.3149414,-0.2568359
256,140.75,-78.1875,49.75,0.2861328,0.07958984,1.027832,0.1000977,-0.340332,-0.2597656
257,115.5,-60.75,41.3125,0.2543945,0.07958984,1.063477,0.1000977,-0.340332,-0.2597656
258,85.5,-38.75,34.6875,0.2822266,0.1259766,1.075195,0.1054688,-0.3530273,-0.262207
259,60.8125,-14.6875,28.3125,0.2304688,0.1103516,1.083008,0.1054688,-0.3530273,-0.262207
260,46.875,8.9375,22.1875,0.262207,0.1298828,1.102539,0.08935547,-0.3662109,-0.2597656
261,38.125,27.75,15.125,0.2739258,0.1450195,1.059082,0.1030273,-0.3686523,-0.2651367
262,25.8125,39.625,7.1875,0.2783203,0.3188477,1.150391,0.1030273,-0.3686523,-0.2651367
263,-57.5,89.0625,0.25,0.3896484,-0.07861328,2.525879,0.09472656,-0.3686523,-0.2568359
264,17.125,-16.5,35.125,0.4970703,0.3691406,0.3950195,0.09472656,-0.3686523,-0.2568359
265,98.4375,65.1875,-27.5,1.205566,1.087891,0.6796875,0.1083984,-0.3686523,-0.262207
266,-82.5625,111.4375,17.4375,0.3139648,0.06396484,0.3598633,0.1132813,-0.3813477,-0.262207
267,-60.25,19,41.8125,0.09082031,-0.1826172,0.2094727,0.1132813,-0.3813477,-0.262207
268,-95.8125,-22,59.375,0.2700195,-0.05126953,0.8222656,0.1240234,-0.3632813,-0.2597656
269,-95.625,-95.9375,93.4375,0.262207,-0.4492188,0.2807617,0.1132813,-0.355957,-0.2651367
270,-110.8125,-118.25,113.9375,0.3735352,-0.3720703,1.150391,0.1132813,-0.355957,-0.2651367
271,-120.125,-84.5,140.625,0.4770508,-0.519043,1.20166,0.1132813,-0.355957,-0.2651367
272,-110.3125,-48.625,174.5,0.425293,-0.3256836,1.648438,0.1132813,-0.355957,-0.2651367
273,-90.5625,129.1875,254.8125,-0.00390625,-0.175293,2.3125,0.1000977,-0.3227539,-0.2543945
274,-33.375,245.0625,257.75,0.1191406,0.1796875,1.193848,0.1000977,-0.3227539,-0.2543945
275,-13,200.1875,205.9375,0.4414063,0.5546875,0.7666016,0.1000977,-0.3227539,-0.2543945
276,-16.0625,130.5,165.125,0.1147461,0.2109375,1.015625,0.1376953,-0.3071289,-0.2543945
277,-21.875,99.25,176.0625,0.07910156,0.1411133,1.304199,0.1376953,-0.3071289,-0.2543945
278,-22.375,100.75,198.1875,0.1347656,0.1259766,1.391113,0.1376953,-0.3071289,-0.2543945
279,-21.5,106.75,218.125,0.2265625,0.09082031,1.43457,0.1669922,-0.3095703,-0.262207
280,-13.8125,97.75,237.875,0.2822266,0.04833984,1.422852,0.1669922,-0.3095703,-0.262207
281,-15.875,95.1875,194.5,0.5527344,0.4619141,1.316406,0.1669922,-0.3095703,-0.262207
282,-27.8125,94.1875,36.625,0.6083984,-0.01269531,1.324219,0.2016602,-0.3198242,-0.2543945
283,16,65.5,154.25,0.3896484,-0.5380859,1.415039,0.2016602,-0.3198242,-0.2543945
284,13.125,54.125,175.125,0.4692383,-0.004882813,1.45459,0.2016602,-0.3198242,-0.2543945
285,12.6875,54.375,168.75,0.4375,-0.01269531,1.359863,0.2016602,-0.3198242,-0.2543945
286,27.625,47.625,159.8125,0.4492188,0.06005859,1.34375,0.2148438,-0.3173828,-0.2597656
287,32.875,51.375,123.75,0.4692383,0.07177734,1.34375,0.2148438,-0.3173828,-0.2597656
288,49.5625,49.5625,102.125,0.4013672,-0.02441406,1.300293,0.2148438,-0.3173828,-0.2597656
289,61.5625,45,96.625,0.3974609,-0.004882813,1.288574,0.2285156,-0.3300781,-0.2519531
290,64.9375,45.25,89.25,0.4174805,0.04833984,1.221191,0.2416992,-0.3354492,-0.246582
291,59.375,40.125,75.9375,0.4614258,0.02148438,1.474121,0.2416992,-0.3354492,-0.246582
292,96.3125,98.8125,-21.0625,-0.1669922,-0.109375,0.6679688,0.2387695,-0.3432617,-0.246582
293,67.875,117,56.75,0.1469727,-0.3994141,0.3833008,0.2387695,-0.3432617,-0.246582
294,52.3125,66.8125,76.9375,0.480957,0.1220703,0.8579102,0.2495117,-0.3530273,-0.2490234
295,38.6875,74.1875,-1.5625,0.4570313,0.1645508,0.8496094,0.2602539,-0.3632813,-0.246582
296,0.3125,76.75,-0.5625,0.3618164,-0.1210938,0.8696289,0.2602539,-0.3632813,-0.246582
297,-31.3125,47.5,42.5625,0.2026367,0.04443359,0.8891602,0.2602539,-0.3583984,-0.246582
298,-46.125,21.8125,37.875,0.1987305,0.06396484,0.9487305,0.2602539,-0.3583984,-0.246582
299,-58.5625,12.75,61.9375,0.03515625,0.06787109,1.086914,0.2685547,-0.3608398,-0.2436523
300,-62.625,11.25,97.375,0.01123047,0.1025391,1.173828,0.2739258,-0.3632813,-0.2490234
301,-51.875,13.625,133.625,-0.01171875,-0.06689453,1.375488,0.2739258,-0.3632813,-0.2490234
302,28.5,3.8125,180.125,-0.2983398,-1.021484,1.324219,0.2817383,-0.3530273,-0.2436523
303,66.75,-43.875,221.9375,-0.2788086,-0.6733398,1.276855,0.265625,-0.3505859,-0.246582
304,80.3125,-62.4375,205.75,0.5927734,0.02929688,1.296387,0.265625,-0.3505859,-0.246582
305,46.375,-19.125,108.5625,0.9907227,0.1411133,1.225098,0.2685547,-0.3735352,-0.2412109
306,29.8125,-1.0625,49.875,0.628418,-0.1557617,1.05127,0.2685547,-0.3735352,-0.2412109
307,19.375,-0.6875,46.6875,0.4692383,-0.2602539,1.130371,0.2602539,-0.3891602,-0.2412109
309,12.5,16.25,59.75,0.3417969,-0.4262695,1.122559,0.2602539,-0.3837891,-0.2436523
310,-14.3125,46.1875,75.6875,0.7915039,-0.109375,1.154297,0.2602539,-0.3837891,-0.2436523
311,-69.625,73.875,91.125,0.480957,-0.4223633,0.9643555,0.265625,-0.3867188,-0.2412109
312,-88,74.125,84.8125,0.6484375,-0.09765625,1.023926,0.265625,-0.3867188,-0.2412109
313,-64.1875,49.25,85.125,0.3061523,-0.3603516,1.166016,0.2739258,-0.3837891,-0.2436523
314,-31.5,20.0625,119.625,0.3017578,-0.2988281,1.094727,0.2763672,-0.3813477,-0.2490234
315,-17.25,2.5,141.625,0.3818359,-0.1132813,1.122559,0.2763672,-0.3813477,-0.2490234
316,-21.5,1.375,149.75,0.3061523,-0.1289063,1.193848,0.2739258,-0.3764648,-0.2436523
317,-18.6875,-1.5625,153.75,0.2304688,-0.1289063,1.264648,0.2763672,-0.3735352,-0.2412109
318,-10.5,-0.125,155.6875,0.1748047,-0.1401367,1.3125,0.2763672,-0.3735352,-0.2412109
319,-6.375,6.1875,157.8125,0.1230469,-0.1943359,1.320313,0.2685547,-0.3764648,-0.2412109
320,-14,18.8125,159.625,-0.0078125,-0.2099609,1.375488,0.2685547,-0.3764648,-0.2412109
321,-13.9375,32.9375,160.9375,-0.203125,-0.1982422,1.411133,0.2841797,-0.3813477,-0.2436523
322,-7.3125,43.375,163.8125,-0.3383789,-0.125,1.332031,0.2841797,-0.3867188,-0.2412109
323,1.625,51.9375,160.5,-0.5053711,0.1103516,1.264648,0.2841797,-0.3867188,-0.2412109
324,-0.5625,58.8125,141.4375,-0.6489258,0.05224609,1.430664,0.2895508,-0.3891602,-0.2358398
325,-0.4375,72.3125,125.125,-0.7480469,0.1411133,1.458496,0.2895508,-0.3891602,-0.2358398
326,2.9375,95.5,101.9375,-0.7402344,0.1259766,1.486328,0.2871094,-0.3994141,-0.2387695
327,1.0625,123.8125,68.8125,-0.84375,0.2416992,1.39502,0.2871094,-0.4042969,-0.2226563
328,5.75,145.9375,46.4375,-0.7919922,0.005859375,1.217285,0.2871094,-0.4042969,-0.2226563
329,25.375,161.5,34.375,-0.7719727,-0.144043,1.071289,0.3085938,-0.4042969,-0.230957
330,50.875,172.6875,29.25,-0.6845703,-0.1943359,0.8974609,0.3217773,-0.4018555,-0.2280273
331,76.5,177.4375,24.625,-0.5932617,-0.1982422,0.6835938,0.3217773,-0.4018555,-0.2280273
332,101.625,169.25,18.75,-0.4775391,-0.1289063,0.4941406,0.3432617,-0.4169922,-0.2094727
333,114.75,143.4375,10.0625,-0.3583984,-0.01660156,0.2646484,0.3432617,-0.4169922,-0.2094727
334,114.4375,109.0625,-6.3125,-0.2705078,0.1181641,0.1542969,0.3540039,-0.4350586,-0.1962891
335,108.625,66.0625,-15.0625,-0.1669922,0.06396484,-0.01123047,0.375,-0.4453125,-0.2016602
336,93.8125,4.4375,-28.125,-0.175293,0.1606445,-0.1142578,0.375,-0.4453125,-0.2016602
337,61.125,-56.9375,-42.1875,0.2504883,0.2495117,-0.2524414,0.375,-0.4555664,-0.2016602
338,15.8125,-133,-69.6875,0.2700195,0.222168,-0.1577148,0.375,-0.4555664,-0.2016602
339,-0.125,-178.8125,-80.875,0.4970703,0.07568359,0.1582031,0.3725586,-0.4555664,-0.1914063
340,2.1875,-212.1875,-88.375,0.6362305,-0.07861328,0.3994141,0.3378906,-0.4477539,-0.2177734
341,16,-232.625,-86.875,0.7041016,-0.1210938,0.4902344,0.3378906,-0.4477539,-0.2177734
342,15.1875,-250.4375,-84.625,0.8354492,-0.1171875,0.5810547,0.3271484,-0.4453125,-0.2226563
343,-0.9375,-266.375,-76.0625,0.875,-0.1171875,0.6879883,0.3032227,-0.4404297,-0.2255859
344,-11.0625,-268.8125,-61.6875,0.8950195,-0.1904297,0.9326172,0.3032227,-0.4404297,-0.2255859
345,-6.0625,-245.4375,-42.4375,0.8232422,-0.1210938,1.162109,0.2817383,-0.4428711,-0.2358398
346,0.25,-216.3125,-35.1875,0.8510742,-0.03222656,1.173828,0.2817383,-0.4428711,-0.2358398
347,8.3125,-191.375,-32.875,0.8037109,-0.004882813,1.154297,0.2548828,-0.4453125,-0.2358398
348,7.8125,-175.9375,-28.5,0.7280273,0.06005859,1.055176,0.230957,-0.4428711,-0.2490234
349,3,-182.875,-27.9375,0.6879883,0.1259766,1.079102,0.230957,-0.4428711,-0.2490234
350,10.0625,-191.625,-33.8125,0.6601563,0.1953125,1.169922,0.2231445,-0.4404297,-0.2436523
351,19.5625,-192.25,-37.0625,0.6640625,0.1723633,1.237305,0.2231445,-0.4404297,-0.2436523
352,560.5,737.125,0.1875,1.591309,-1.330566,8.075195,0.1855469,-0.4428711,-0.2490234
353,260.5625,449.125,-36.5,-0.3261719,1.771973,-1.612305,0.230957,-0.4887695,-0.2358398
354,-47.375,182.1875,-7.375,0.9628906,0.8291016,1.039551,0.230957,-0.4887695,-0.2358398
355,-74.0625,120.25,-38.1875,0.4453125,-0.1479492,1.118652,0.2685547,-0.4941406,-0.2226563
356,-36.3125,52.5,22.125,0.2900391,-0.3955078,0.5888672,0.2817383,-0.4785156,-0.2202148
357,15,31.875,48.375,0.3774414,-0.2099609,0.8100586,0.2817383,-0.4785156,-0.2202148
358,10.375,41.5,33.375,0.222168,0.1333008,0.940918,0.2871094,-0.4863281,-0.2280273
359,-43,62.75,5.375,0.01953125,0.2763672,1.094727,0.2871094,-0.4863281,-0.2280273
360,-99.4375,73.6875,-18.625,-0.2426758,0.2416992,1.245117,0.2978516,-0.4785156,-0.2177734
361,-99,81.25,-43.5,-0.1669922,0.08740234,1.569336,0.3032227,-0.4707031,-0.2226563
362,21.875,129.375,-68.8125,-0.2587891,0.1259766,0.7470703,0.3032227,-0.4707031,-0.2226563
363,-38.875,42.1875,-48.9375,-0.4658203,0.04833984,1.05127,0.3032227,-0.4682617,-0.2255859
364,-45.4375,46.375,-16.4375,-0.3701172,-0.1865234,1.11084,0.3032227,-0.4682617,-0.2255859
365,-40.3125,39,-4,-0.01611328,-0.3603516,1.173828,0.3139648,-0.4707031,-0.2148438
366,-12,11.5625,-1.8125,0.1469727,-0.2949219,1.162109,0.3325195,-0.4580078,-0.2202148
367,38.4375,-26.9375,-7.25,0.1425781,-0.159668,1.166016,0.3325195,-0.4580078,-0.2202148
368,82.0625,-60.5625,-17.0625,0.06738281,-0.1401367,1.221191,0.3164063,-0.4682617,-0.2148438
369,130.0625,-90.5,-26.5,0.04345703,-0.1865234,1.272949,0.3085938,-0.4682617,-0.2148438
370,177.25,-117.9375,-30.625,-0.02001953,-0.2021484,1.34375,0.3085938,-0.4682617,-0.2148438
371,197.1875,-123.1875,-24.1875,0.1030273,-0.1054688,1.308105,0.3032227,-0.480957,-0.2202148
372,181.375,-106.5,-25.375,0.2583008,-0.07080078,1.237305,0.3032227,-0.480957,-0.2202148
374,148.25,-96.6875,-26.3125,0.409668,-0.04736328,1.059082,0.2978516,-0.5043945,-0.2124023
375,111.1875,-104.75,-26.875,0.4892578,0.01757813,0.9643555,0.2895508,-0.5170898,-0.2148438
376,75.8125,-105.0625,-15.3125,0.1865234,-0.07861328,0.9130859,0.2895508,-0.5170898,-0.2148438
377,-0.125,-52,54.875,0.1826172,0.2763672,1.130371,0.2739258,-0.5322266,-0.2148438
378,-66.5625,-6,69.875,0.07519531,-0.05517578,0.9804688,0.2739258,-0.5322266,-0.2148438
379,-135.5,0.4375,62.0625,-0.01611328,0.6318359,1.011719,0.2763672,-0.5322266,-0.2148438
380,-176,9.375,31.375,0.003417969,0.6357422,1.213379,0.2685547,-0.5219727,-0.2202148
381,-195.9375,19.5625,-3.0625,0.003417969,0.4619141,1.320313,0.2685547,-0.5219727,-0.2202148
382,-190.375,17.875,-19.0625,-0.02392578,0.1762695,1.34375,0.2548828,-0.4941406,-0.2148438
383,-164.8125,1.4375,-16.8125,0.03125,-0.05126953,1.296387,0.2739258,-0.4887695,-0.2202148
384,-130.6875,-21.125,-7.75,0.08691406,-0.1943359,1.225098,0.2739258,-0.4887695,-0.2202148
385,-94.5625,-45.4375,-2.5625,0.1147461,-0.2524414,1.233398,0.2685547,-0.4580078,-0.2333984
386,-58.5,-69.6875,-9.8125,0.2143555,-0.1289063,1.324219,0.2685547,-0.4580078,-0.2333984
387,-16.6875,-90.875,-15.1875,0.1987305,-0.1635742,1.154297,0.2548828,-0.4506836,-0.2333984
388,23.125,-111.5,-21.9375,0.2104492,-0.1289063,1.173828,0.2495117,-0.4477539,-0.2358398
389,56.75,-128.8125,-24.3125,0.2026367,-0.109375,1.106934,0.2495117,-0.4477539,-0.2358398
390,78.5625,-137,-24.375,0.2265625,0.02539063,1.158203,0.230957,-0.4477539,-0.230957
391,84.3125,-133,-24.75,0.2265625,0.06005859,1.138184,0.230957,-0.4477539,-0.230957
392,76.25,-118.8125,-24.25,0.2661133,0.08740234,1.094727,0.2177734,-0.4580078,-0.2387695
393,57.6875,-103.25,-22.0625,0.2939453,0.1333008,1.011719,0.2016602,-0.4682617,-0.2412109
394,36.8125,-87.5,-20.75,0.3657227,0.1606445,0.9643555,0.2016602,-0.4682617,-0.2412109
395,14.8125,-72.5625,-19.8125,0.3857422,0.137207,0.9682617,0.1831055,-0.4736328,-0.2358398
396,-6.3125,-58.5625,-18.125,0.3896484,0.1762695,0.9682617,0.190918,-0.4838867,-0.2412109
397,-26.625,-44.8125,-14.125,0.3579102,0.1489258,0.9526367,0.190918,-0.4838867,-0.2412109
398,-44,-32.125,-11.9375,0.3217773,0.1875,0.984375,0.1831055,-0.4760742,-0.2490234
399,-55.875,-20.125,-14.3125,0.3378906,0.168457,1.015625,0.1831055,-0.4760742,-0.2490234
400,-62.125,-11.25,-18.75,0.3100586,0.09863281,1.039551,0.1777344,-0.4580078,-0.2436523
401,-61.8125,-7.375,-20.0625,0.3100586,0.07568359,1.007813,0.1831055,-0.4609375,-0.2387695
402,-55.5,-6.5625,-18.8125,0.2939453,0.02539063,1.035645,0.1831055,-0.4609375,-0.2387695
403,-44.375,-6.1875,-15,0.3139648,0.005859375,1.063477,0.1723633,-0.4609375,-0.2490234
404,-32,-7.9375,-9.8125,0.3417969,0.009765625,1.063477,0.1723633,-0.4609375,-0.2490234
405,-18.9375,-10.375,-3.6875,0.2978516,-0.01660156,1.035645,0.1831055,-0.4404297,-0.246582
406,-10.375,-14.5,3.875,0.2739258,0.02148438,1.007813,0.1831055,-0.4477539,-0.2358398
407,-2.0625,-23.4375,3.125,0.1904297,0.04443359,0.8579102,0.1831055,-0.4477539,-0.2358398
408,-14.25,-32.875,10.6875,0.1704102,-0.04003906,0.9487305,0.1831055,-0.4477539,-0.2358398
409,-21.375,-27.3125,23.6875,0.1943359,-0.02050781,1.035645,0.1723633,-0.4404297,-0.2597656
410,-35.1875,-28.8125,42,0.2265625,-0.1904297,0.9208984,0.1723633,-0.4404297,-0.2597656
411,-38.375,-19.75,47.875,0.3178711,-0.109375,1.019531,0.1723633,-0.4404297,-0.2597656
412,-34.8125,-12.875,52.9375,0.2382813,-0.1518555,1.059082,0.1723633,-0.4404297,-0.2597656
413,-14.4375,-8.4375,58,0.1665039,-0.1518555,1.162109,0.1669922,-0.4404297,-0.2519531
414,24.6875,-9.625,69.375,0.1308594,-0.1479492,1.233398,0.1669922,-0.4404297,-0.2519531
415,82.3125,-11.75,51.25,0.3774414,0.1762695,1.256836,0.1669922,-0.4404297,-0.2519531
416,109.4375,-26.25,10.3125,0.4013672,0.21875,1.031738,0.1586914,-0.4350586,-0.2543945
417,104.6875,-28.8125,-6,0.3579102,0.06787109,0.972168,0.1586914,-0.4350586,-0.2543945
418,71.625,-18,3.6875,0.2739258,-0.02832031,1.05127,0.1586914,-0.4350586,-0.2543945
419,32.0625,0.25,18.5625,0.2661133,0.04833984,0.9960938,0.1455078,-0.4658203,-0.2519531
420,-6.8125,12.6875,20.375,0.2583008,0.1259766,1.007813,0.1455078,-0.4658203,-0.2519531
421,-34.5625,19,21.875,0.2460938,0.05224609,0.972168,0.1455078,-0.4658203,-0.2519531
422,-45.6875,18.9375,24.875,0.4013672,0.1835938,1.071289,0.1430664,-0.4658203,-0.2436523
423,-41.1875,15.4375,5.8125,0.3378906,0.07177734,1.031738,0.1430664,-0.4658203,-0.2436523
424,-36,18.875,-0.3125,0.3735352,0.09863281,1.09082,0.1430664,-0.4658203,-0.2436523
425,-39.4375,24.9375,-21.625,0.3735352,0.152832,1.003906,0.1430664,-0.4658203,-0.2436523
426,-48.4375,31.5625,-22.4375,0.465332,0.1103516,1.011719,0.1586914,-0.4477539,-0.2490234
427,-60.6875,36.375,-35.6875,0.3818359,0.09863281,1.003906,0.1586914,-0.4375,-0.2436523
428,-68.625,40.75,-34.8125,0.3378906,0.001953125,1.007813,0.1586914,-0.4375,-0.2436523
429,-76.1875,41.875,-16.75,0.3178711,-0.109375,1.043457,0.1640625,-0.4350586,-0.2490234
430,-73.625,49.3125,-1.5,0.3017578,-0.1210938,1.086914,0.1669922,-0.4350586,-0.2490234
431,-66.125,53.1875,6.875,0.2861328,-0.1713867,0.8261719,0.1669922,-0.4350586,-0.2490234
432,-56.625,53.9375,8.6875,0.3217773,-0.2138672,1.158203,0.1748047,-0.4248047,-0.2519531
433,-39.625,45.4375,11,0.3417969,-0.2250977,0.984375,0.1748047,-0.4248047,-0.2519531
434,-7.6875,38.5625,11.625,0.3618164,-0.1635742,1.146484,0.1831055,-0.4121094,-0.2436523
435,32.4375,32.875,13,0.2104492,-0.125,1.264648,0.1831055,-0.4169922,-0.246582
436,51.4375,17.625,12.125,0.1586914,-0.05517578,0.9882813,0.1831055,-0.4169922,-0.246582
437,56.6875,3.8125,8.125,0.1748047,-0.02832031,1.106934,0.1855469,-0.4169922,-0.2490234
439,58.3125,0.6875,7.0625,0.1748047,0.001953125,1.158203,0.1855469,-0.4169922,-0.2490234
440,45.875,-0.875,7.8125,0.234375,-0.004882813,1.063477,0.1855469,-0.4248047,-0.2412109
441,26.8125,4.3125,8.1875,0.2700195,0.02539063,1.126465,0.1962891,-0.4301758,-0.2519531
442,11.25,13.1875,7.4375,0.3217773,0.02929688,1.138184,0.1962891,-0.4301758,-0.2519531
443,-1.5,17.5625,5.0625,0.3417969,0.02539063,1.094727,0.1987305,-0.4272461,-0.2490234
444,-6.125,23.375,5.0625,0.3457031,-0.0009765625,1.173828,0.1987305,-0.4326172,-0.2490234
445,-4.25,29.4375,6.9375,0.3378906,0.001953125,1.177734,0.1987305,-0.4326172,-0.2490234
446,-0.1875,33.125,8.1875,0.3017578,-0.01269531,1.209473,0.190918,-0.4350586,-0.2490234
447,5.125,33.3125,7.25,0.3139648,-0.0009765625,1.14209,0.190918,-0.4350586,-0.2490234
448,13.375,29.625,6.8125,0.3100586,-0.008789063,1.209473,0.2070313,-0.4404297,-0.246582
449,23.875,25.5625,9.5,0.2939453,-0.05126953,1.221191,0.2148438,-0.4404297,-0.2490234
450,31.125,20,14.4375,0.2661133,-0.008789063,1.14209,0.2148438,-0.4404297,-0.2490234
451,32.8125,14.8125,20.625,0.2661133,0.009765625,1.169922,0.2070313,-0.4404297,-0.2412109
452,28.5625,13,26.5,0.2265625,0.02929688,1.169922,0.2070313,-0.4404297,-0.2412109
453,19.5625,12.5,30.875,0.2304688,0.02929688,1.181641,0.2070313,-0.453125,-0.2412109
454,7.4375,11.3125,32.375,0.2265625,0.04443359,1.122559,0.2285156,-0.453125,-0.2436523
455,-3.8125,10.25,31.0625,0.234375,0.02539063,1.138184,0.2285156,-0.453125,-0.2436523
456,-11.875,10.5625,28.1875,0.234375,-0.02832031,1.185547,0.2041016,-0.4428711,-0.2412109
457,-15.8125,9.5,23.6875,0.2939453,-0.06298828,1.173828,0.2148438,-0.4477539,-0.2519531
458,-12.875,7.9375,20.875,0.2900391,-0.1328125,1.256836,0.2148438,-0.4477539,-0.2519531
459,-6.125,4.25,20.75,0.2939453,-0.144043,1.169922,0.2231445,-0.4453125,-0.2436523
460,1,-0.375,21.8125,0.3457031,-0.109375,1.150391,0.2231445,-0.4453125,-0.2436523
461,6.75,-5.0625,22.375,0.3300781,-0.1210938,1.11084,0.2124023,-0.4404297,-0.2519531
462,9.625,-8.75,22,0.3217773,-0.07470703,1.130371,0.2148438,-0.4453125,-0.246582
463,8.9375,-12.1875,21.8125,0.2739258,-0.04003906,1.138184,0.2148438,-0.4453125,-0.246582
464,6.625,-13.8125,20,0.2583008,-0.02832031,1.122559,0.2124023,-0.4506836,-0.2490234
465,2.8125,-13.0625,19.5,0.2543945,-0.02050781,1.11084,0.2124023,-0.4506836,-0.2490234
466,-4.0625,-11.5625,22.5625,0.2504883,-0.06689453,1.083008,0.2041016,-0.4477539,-0.2412109
467,-15.125,-10.125,26.6875,0.2739258,-0.09375,1.071289,0.2094727,-0.453125,-0.246582
468,-27.5625,-9,29.375,0.3139648,-0.1132813,1.063477,0.2094727,-0.453125,-0.246582
469,-35.875,-7.8125,29.125,0.3535156,-0.1289063,1.122559,0.2041016,-0.4453125,-0.2490234
470,-36,-6.0625,25.8125,0.4052734,-0.1054688,1.185547,0.2041016,-0.4375,-0.2543945
471,-29.0625,-4.75,21.9375,0.3935547,-0.06689453,1.197754,0.2041016,-0.4375,-0.2543945
472,-24.4375,-3.75,17.125,0.3496094,-0.06689453,1.173828,0.2094727,-0.4404297,-0.2333984
473,-26.0625,-1.3125,11.375,0.3300781,0.005859375,1.197754,0.2094727,-0.4404297,-0.2333984
474,-34,0.0625,5.625,0.2661133,0.01757813,1.166016,0.2070313,-0.4350586,-0.2568359
475,-40.3125,-0.75,4.125,0.2265625,0.04833984,1.169922,0.2016602,-0.4350586,-0.246582
476,-40.8125,-4.0625,4.75,0.1865234,0.07568359,1.213379,0.2016602,-0.4350586,-0.246582
477,-39.4375,-9.875,9.4375,0.1508789,0.04443359,1.217285,0.1987305,-0.4301758,-0.2436523
478,-38.9375,-16.75,17.75,0.1665039,0.05224609,1.177734,0.1987305,-0.4301758,-0.2436523
479,-43.0625,-23.25,32.6875,0.1943359,0.04443359,1.241211,0.1962891,-0.4223633,-0.2490234
480,-57.6875,-19.375,36.4375,0.05126953,-0.02832031,1.039551,0.2070313,-0.4121094,-0.2436523
481,-71.8125,-24.6875,57,0.2026367,-0.008789063,1.162109,0.2070313,-0.4121094,-0.2436523
482,-87.125,-24,59.9375,0.3496094,-0.07861328,1.328125,0.1855469,-0.4145508,-0.246582
483,-68.1875,-20.375,63.375,0.4174805,-0.2290039,1.304199,0.1962891,-0.3969727,-0.246582
484,-40.1875,-27.625,72.5,0.4213867,-0.3139648,1.225098,0.1962891,-0.3969727,-0.246582
485,-6.0625,-36.8125,86.75,0.4213867,-0.3837891,1.276855,0.1831055,-0.3994141,-0.2597656
486,32,-46.6875,97.9375,0.3657227,-0.3452148,1.233398,0.1831055,-0.3994141,-0.2597656
487,57.5625,-60.1875,95.0625,0.2978516,-0.2021484,1.122559,0.1723633,-0.3969727,-0.2519531
488,65.8125,-73,74.625,0.1904297,-0.1557617,0.9682617,0.1669922,-0.3994141,-0.2568359
489,44.0625,-91.75,45.1875,0.2265625,-0.1015625,0.7709961,0.1669922,-0.3994141,-0.2568359
490,18.8125,-110.5625,26.5625,0.2421875,-0.2792969,0.7788086,0.1586914,-0.4223633,-0.262207
491,-35.125,-145.6875,46.625,0.1625977,-0.777832,0.5966797,0.1586914,-0.4223633,-0.262207
492,-29.4375,-138.6875,110.75,0.3100586,-0.762207,1.067383,0.1484375,-0.4199219,-0.2568359
493,-15.4375,-112.875,84.625,0.5805664,0.2495117,0.9013672,0.1186523,-0.4121094,-0.2543945
494,-17.5625,-78.625,10.3125,0.4614258,0.2260742,0.9287109,0.1186523,-0.4121094,-0.2543945
495,-19.1875,-39.4375,-18.1875,0.3618164,0.01367188,0.8930664,0.1000977,-0.4072266,-0.2597656
496,-23,-2.75,-20.6875,0.4331055,-0.07470703,1.019531,0.1083984,-0.4072266,-0.2519531
497,-15.5625,24.0625,-14.1875,0.4892578,-0.1826172,1.023926,0.1083984,-0.4072266,-0.2519531
498,-9.75,51.375,-8,0.5805664,-0.1518555,1.075195,0.1108398,-0.4018555,-0.262207
499,-6,74.0625,-8.5625,0.5087891,-0.2177734,1.09082,0.1108398,-0.4018555,-0.262207
500,5.6875,88.9375,-11.375,0.480957,-0.1943359,1.158203,0.121582,-0.4072266,-0.2519531
501,13.75,98.875,-16.6875,0.5727539,-0.1557617,1.059082,0.1401367,-0.3994141,-0.246582
502,12.75,99.25,-21.875,0.4770508,-0.3178711,1.118652,0.1401367,-0.3994141,-0.246582
504,36.1875,80.25,-12.5625,0.3178711,-0.2216797,1.102539,0.1430664,-0.4042969,-0.2490234
505,50.125,70.8125,-4.125,0.2700195,-0.09375,1.043457,0.1430664,-0.4042969,-0.2490234
506,28,83.3125,41.0625,0.06298828,-0.3837891,0.9365234,0.1586914,-0.4169922,-0.262207
507,-147.875,407.9375,-27.5,0.9267578,-0.7084961,0.9326172,0.1694336,-0.4121094,-0.262207
508,9.4375,227.4375,-63.5,1.133789,-0.3491211,0.7392578,0.1694336,-0.4121094,-0.262207
509,150.75,96.4375,-132.8125,-0.2148438,0.3383789,0.2250977,0.2124023,-0.4042969,-0.2519531
510,44.3125,135.6875,-26.875,-1.277832,0.4038086,1.818359,0.2202148,-0.409668,-0.2490234
511,123.8125,116.8125,83.5625,-0.7524414,-0.7119141,0.5771484,0.2202148,-0.409668,-0.2490234
512,179.25,39.4375,136.4375,-0.1235352,-1.77832,-0.046875,0.2338867,-0.4223633,-0.2519531
513,149.6875,36.3125,141.625,1.675293,-0.3066406,0.4467773,0.2338867,-0.4223633,-0.2519531
514,139.75,49.25,42.375,0.9707031,-0.3759766,1.055176,0.2416992,-0.4404297,-0.2490234
515,102.0625,-2.8125,-3.6875,-0.7998047,-0.3217773,1.29248,0.2416992,-0.4682617,-0.230957
516,131.0625,-29.75,88.125,-1.114258,0.237793,1.280762,0.2416992,-0.4682617,-0.230957
517,72.9375,61.0625,172.5,-0.4418945,0.3383789,0.8144531,0.2338867,-0.480957,-0.2255859
518,-34.375,127.9375,206.1875,0.1704102,0.09082031,0.7036133,0.2338867,-0.480957,-0.2255859
519,-7.25,115.1875,151.5625,0.2421875,0.1762695,1.007813,0.2363281,-0.4863281,-0.230957
520,-9.5,100,84.875,0.1230469,0.07568359,1.086914,0.2416992,-0.480957,-0.2226563
521,-6.875,114.125,32.8125,0.01953125,0.1567383,1.225098,0.2416992,-0.480957,-0.2226563
522,26,97,19.375,-0.5454102,0.3769531,1.268555,0.2578125,-0.4912109,-0.2255859
523,58.375,83.8125,-17.3125,-0.2905273,0.3188477,1.225098,0.2739258,-0.4887695,-0.2202148
524,83.25,80.5625,-58.4375,-0.00390625,-0.09765625,1.379395,0.2739258,-0.4887695,-0.2202148
525,86.875,82.1875,-94,0.2739258,-0.07861328,0.9804688,0.2739258,-0.5043945,-0.2148438
526,75.75,85.375,-127.8125,0.1030273,-0.1328125,1.300293,0.2739258,-0.5043945,-0.2148438
527,65,97.5625,-174.3125,-0.07958984,0.01757813,1.25293,0.2871094,-0.5092773,-0.2148438
528,69.8125,108.8125,-239.25,-0.2070313,0.07177734,1.189941,0.3032227,-0.5146484,-0.2016602
529,57.125,102.875,-330.6875,0.3178711,-0.1054688,0.9760742,0.3032227,-0.5146484,-0.2016602
530,88.125,54.8125,-316.6875,-0.4458008,0.02929688,1.162109,0.3242188,-0.5092773,-0.1938477
531,57.75,93.875,-278.5,-0.2827148,0.2299805,1.225098,0.3242188,-0.5092773,-0.1938477
532,5.875,103.1875,-206,-0.7719727,0.8056641,1.059082,0.3457031,-0.5043945,-0.1884766
533,-53.3125,106.5,-146.8125,0.1508789,0.4814453,1.249023,0.3588867,-0.4887695,-0.1806641
534,-78.25,84.3125,-141.25,-0.1313477,0.253418,1.221191,0.3588867,-0.4887695,-0.1806641
535,-82.875,69.5,-156.625,-0.09960938,0.3613281,1.383301,0.375,-0.4785156,-0.1914063
536,-71.625,73.625,-157.4375,0.06298828,0.07568359,1.14209,0.3886719,-0.4682617,-0.1831055
537,-72.375,54.8125,-121.375,-0.03564453,0.009765625,1.276855,0.3886719,-0.4682617,-0.1831055
538,-85.25,31.4375,-121.4375,-0.2788086,0.1333008,1.241211,0.3886719,-0.4682617,-0.1831055
539,-101.6875,19.75,-147,-0.2866211,-0.1557617,1.632324,0.3886719,-0.4682617,-0.1831055
540,-123.6875,29.125,-154,-0.2226563,0.06787109,1.276855,0.4125977,-0.4223633,-0.1884766
541,-131.75,26.8125,-198.375,-0.1430664,0.2998047,1.185547,0.4125977,-0.4223633,-0.1884766
542,-196.9375,36.9375,-265.5625,-0.3740234,0.2919922,1.280762,0.4125977,-0.4223633,-0.1884766
543,-238.1875,21.5,-263.125,-0.203125,-0.2675781,1.308105,0.4233398,-0.3662109,-0.1806641
544,-211,-19.25,-238.8125,-0.0078125,-0.3334961,1.169922,0.4233398,-0.3662109,-0.1806641
545,-176.375,-16.625,-266.8125,0,-0.1943359,1.154297,0.4233398,-0.3662109,-0.1806641
546,-148.5,19.1875,-297.125,-0.07568359,-0.2524414,1.106934,0.4233398,-0.3071289,-0.1782227
547,-103.5625,28,-340.375,-0.05566406,-0.2021484,1.189941,0.4233398,-0.3071289,-0.1782227
548,-87.9375,55.1875,-349,0.09912109,-0.2832031,1.185547,0.4233398,-0.3071289,-0.1782227
549,-64.25,85.3125,-359.875,0.09912109,-0.2524414,1.225098,0.4233398,-0.2382813,-0.1782227
550,-36.375,116.25,-359.0625,-0.09960938,-0.5341797,1.217285,0.4233398,-0.2382813,-0.1782227
551,5.5,136.0625,-322.5625,-0.05175781,-0.4804688,1.221191,0.4233398,-0.2382813,-0.1782227
552,22.1875,143.6875,-281.75,-0.01611328,-0.418457,1.158203,0.4233398,-0.2382813,-0.1782227
553,26.6875,159.125,-249.375,-0.3422852,-0.4956055,1.632324,0.4311523,-0.199707,-0.1621094
554,27,182.75,-215.9375,-0.1552734,-0.3916016,1.14209,0.4311523,-0.199707,-0.1621094
555,84.625,201.125,-188.875,-0.08349609,-0.4067383,0.9248047,0.4311523,-0.199707,-0.1621094
556,96.3125,225.125,-136.9375,-0.03564453,-0.3955078,0.9643555,0.4394531,-0.1665039,-0.1518555
557,137.25,214.4375,-96.5625,-0.04785156,-0.402832,0.7470703,0.4633789,-0.1743164,-0.1357422
558,159.875,140.5625,-80.5,-0.175293,-0.3491211,0.6166992,0.4633789,-0.1743164,-0.1357422
559,125.8125,66.25,-64.125,-0.3027344,-0.3178711,0.6796875,0.4711914,-0.1845703,-0.1254883
560,88.4375,24.25,-43.9375,-0.3144531,-0.3837891,0.9960938,0.4711914,-0.1845703,-0.1254883
561,57.6875,12.875,-6.8125,-0.2788086,-0.4609375,1.146484,0.4711914,-0.1791992,-0.1254883
562,58.1875,7.75,19,-0.1391602,-0.4804688,1.134277,0.4711914,-0.1894531,-0.1279297
563,47,0.375,46.5,-0.1948242,-0.3837891,1.154297,0.4711914,-0.1894531,-0.1279297
564,24.9375,-2.1875,60.3125,-0.230957,-0.3413086,1.071289,0.4741211,-0.2075195,-0.1254883
565,11.5,-1.6875,79.3125,-0.3979492,-0.3876953,1.154297,0.4741211,-0.2075195,-0.1254883
566,19.375,-10.625,81.8125,-0.5532227,-0.2138672,1.122559,0.484375,-0.2050781,-0.1254883
567,26.625,-16.6875,88.6875,-0.4736328,-0.159668,1.233398,0.4819336,-0.215332,-0.1279297
569,38.4375,-21.8125,81.0625,-0.2109375,-0.1328125,1.166016,0.4819336,-0.215332,-0.1279297
570,45.625,-22.4375,80.625,-0.203125,-0.3217773,1.154297,0.4794922,-0.2202148,-0.1357422
571,58.125,-32.4375,84.875,-0.3500977,-0.4262695,1.043457,0.4765625,-0.2304688,-0.1357422
572,74,-51,87.6875,-0.4736328,-0.4145508,1.083008,0.4765625,-0.2304688,-0.1357422
573,76.3125,-47.75,93.8125,-0.1948242,-0.4223633,1.189941,0.4819336,-0.2407227,-0.1464844
574,76.8125,-32.125,100.625,-0.1713867,-0.3334961,1.185547,0.4819336,-0.2407227,-0.1464844
575,76.3125,-26.875,99.0625,-0.1591797,-0.3256836,1.126465,0.4765625,-0.2636719,-0.1386719
576,81.875,-27.375,108.5,-0.1552734,-0.3217773,1.106934,0.4711914,-0.2739258,-0.144043
577,97.875,-32.1875,108.875,-0.07958984,-0.2138672,1.134277,0.4711914,-0.2739258,-0.144043
578,101.1875,-21.6875,102.3125,-0.1196289,-0.1401367,1.047363,0.46875,-0.3046875,-0.1518555
579,105.5,-11.375,86,-0.04394531,-0.01269531,0.956543,0.46875,-0.3046875,-0.1518555
580,96,-9.875,65.625,-0.2509766,-0.1015625,1.079102,0.4711914,-0.3046875,-0.1518555
581,93.875,-20.625,63.9375,-0.2944336,-0.1289063,1.185547,0.46875,-0.3149414,-0.1572266
582,84.5,-27,70.5,-0.2744141,-0.2021484,1.158203,0.46875,-0.3149414,-0.1572266
583,78.875,-28,80.1875,-0.2666016,-0.06689453,1.25293,0.4765625,-0.3198242,-0.1518555
584,54.9375,-16.3125,79.625,-0.2426758,-0.1289063,1.237305,0.4633789,-0.3457031,-0.1489258
585,28.8125,-4.625,81.8125,-0.2509766,-0.1289063,1.260742,0.4633789,-0.3457031,-0.1489258
586,17.0625,3.75,83.4375,-0.3740234,0.001953125,1.189941,0.4633789,-0.355957,-0.159668
587,1.5,7.75,79.875,-0.4736328,0.02929688,1.126465,0.4633789,-0.355957,-0.159668
588,2.0625,1.625,73.4375,-0.3623047,0.07177734,1.09082,0.4658203,-0.3813477,-0.1572266
589,-4.1875,-3.4375,63.25,-0.2148438,0.08740234,1.114746,0.4658203,-0.3764648,-0.159668
590,-18.1875,-15.6875,28.5,-0.2827148,-0.0009765625,1.118652,0.4658203,-0.3764648,-0.159668
591,-2.75,-12.4375,29.875,-0.2666016,0.1103516,1.197754,0.4633789,-0.3710938,-0.159668
592,-17.625,-15.25,15.9375,-0.01171875,-0.02832031,1.209473,0.4633789,-0.3710938,-0.159668
593,-18.3125,-5.625,15.625,-0.1313477,-0.06689453,1.260742,0.4711914,-0.3764648,-0.1518555
594,-25.75,3.4375,10.875,-0.03564453,0.01757813,1.114746,0.4633789,-0.3632813,-0.1650391
595,-48.4375,6.9375,-8,-0.2148438,-0.05908203,1.003906,0.4633789,-0.3632813,-0.1650391
596,-51.125,3.5625,-5.875,-0.3623047,-0.05517578,1.071289,0.4580078,-0.3735352,-0.1621094
597,-23.125,-2.5625,-11.8125,-0.3979492,0.07177734,1.181641,0.4550781,-0.3583984,-0.1650391
598,-9.9375,-2.0625,-22.0625,-0.4140625,-0.1362305,1.098633,0.4550781,-0.3583984,-0.1650391
599,-4.6875,6.5,-28.5625,-0.4697266,-0.07080078,1.36377,0.4580078,-0.3632813,-0.1728516
600,6.8125,29.3125,-23.6875,-0.3305664,0.03320313,1.233398,0.4580078,-0.3632813,-0.1728516
601,-26.1875,35,-43,-0.2109375,-0.1674805,1.20166,0.4658203,-0.3608398,-0.1728516
602,-38.25,39.125,-37.6875,-0.2548828,-0.1557617,0.9760742,0.4711914,-0.3505859,-0.1572266
603,-30.3125,5.25,-29.375,-0.4458008,-0.125,1.011719,0.4711914,-0.3505859,-0.1572266
604,-17.6875,-5.5625,-23.4375,-0.2509766,-0.0009765625,1.339844,0.4711914,-0.3481445,-0.1704102
605,-22.125,9.25,-27.3125,-0.5415039,0.1914063,0.8535156,0.4711914,-0.3481445,-0.1704102
606,-57.0625,-60.6875,-18.1875,-0.9394531,0.4116211,0.6245117,0.4658203,-0.3457031,-0.1518555
607,20.4375,-88.3125,-45.8125,-0.1831055,-0.02441406,0.7353516,0.4633789,-0.3330078,-0.1704102
608,-23.1875,-165.6875,2.5,0.01953125,-0.008789063,0.9682617,0.4633789,-0.3330078,-0.1704102
609,-35.125,-105.0625,7.6875,0.3100586,-0.3837891,1.509766,0.449707,-0.340332,-0.1489258
610,-44.75,-75.25,0.4375,0.8037109,-0.2216797,0.9921875,0.4311523,-0.340332,-0.1782227
611,-31.125,-43.875,6,0.3339844,-0.1210938,1.035645,0.4311523,-0.340332,-0.1782227
612,-31.875,-32.75,3.375,0.1943359,-0.1904297,1.126465,0.4287109,-0.3378906,-0.1650391
613,-36.5,-28.5,-7.375,-0.02392578,-0.1635742,0.972168,0.4287109,-0.3378906,-0.1650391
614,-37.8125,-21.875,-24.8125,0.015625,-0.159668,1.122559,0.4418945,-0.3276367,-0.1782227
615,-25.1875,1.8125,-37.5,0.234375,-0.2602539,1.102539,0.4204102,-0.3227539,-0.1806641
616,-1.25,28.4375,-42.625,0.3256836,-0.2792969,1.063477,0.4204102,-0.3227539,-0.1806641
617,14.3125,53.8125,-31.5625,0.2026367,-0.144043,0.9013672,0.4257813,-0.3173828,-0.1831055
618,20.0625,72.25,-11.125,0.03955078,-0.008789063,1.086914,0.4257813,-0.3173828,-0.1831055
619,6.125,68.4375,15.5,-0.2426758,0.2685547,1.118652,0.4311523,-0.3173828,-0.1704102
620,-21.6875,45.625,31.3125,-0.4936523,0.2651367,1.272949,0.4418945,-0.3227539,-0.1831055
621,-26.1875,20.75,43,-0.4018555,0.2651367,1.173828,0.4418945,-0.3227539,-0.1831055
622,-34.3125,17.5,33.25,-0.3979492,0.09082031,1.450684,0.4443359,-0.3276367,-0.175293
623,-134.1875,152.9375,10.875,-0.6606445,-0.04736328,0.628418,0.4580078,-0.3149414,-0.1650391
624,-19.1875,41.125,19.4375,-0.4140625,0.01757813,1.102539,0.4580078,-0.3149414,-0.1650391
625,-38.25,24.1875,8.5625,-0.4697266,-0.159668,1.225098,0.4580078,-0.3173828,-0.1650391
626,-15.4375,18.6875,-8,-0.3779297,-0.1943359,1.14209,0.4580078,-0.3173828,-0.1650391
627,-4.875,48.8125,-77.4375,-0.449707,-0.2910156,0.9013672,0.46875,-0.3071289,-0.1572266
628,25.125,19.5625,-45.25,-0.4658203,-0.4765625,1.185547,0.4633789,-0.3095703,-0.1572266
629,40.6875,-12.25,3.4375,0.01953125,0.01367188,1.185547,0.4633789,-0.3095703,-0.1572266
630,31.25,-2.3125,-12.4375,0.2265625,0.07177734,1,0.4633789,-0.3071289,-0.1464844
631,12.4375,-7.125,-17.8125,0.02734375,-0.01660156,1.079102,0.4633789,-0.3071289,-0.1464844
632,8.875,-11.6875,-7.25,-0.3183594,-0.08251953,0.9960938,0.4658203,-0.3149414,-0.1572266
634,8.375,-18.0625,-5.0625,-0.4536133,-0.09375,1.106934,0.4580078,-0.3095703,-0.1621094
635,16.8125,-19.1875,-9.625,-0.3623047,-0.2021484,1.25293,0.4580078,-0.3095703,-0.1621094
636,18.625,-16.875,6.875,-0.1430664,-0.1054688,1,0.46875,-0.296875,-0.1704102
637,-13.125,-19.25,18.3125,-0.1035156,0.05615234,1.063477,0.4711914,-0.3125,-0.1518555
638,-26.875,-18.875,15.125,-0.2666016,0.02929688,1.05127,0.4711914,-0.3125,-0.1518555
639,-43.8125,-16.875,19.5625,-0.190918,-0.05126953,1.122559,0.4633789,-0.3095703,-0.1650391
640,-40,-16,14,-0.2348633,-0.1787109,1.075195,0.4633789,-0.3095703,-0.1650391
641,-29.5625,-16.9375,16.8125,-0.1831055,-0.2177734,1.047363,0.4550781,-0.296875,-0.1542969
642,-15.9375,-15.75,14.3125,-0.07958984,-0.2368164,1.138184,0.4526367,-0.3125,-0.1674805
643,-6.375,-20.5625,15.4375,-0.175293,-0.2216797,1.043457,0.4526367,-0.3125,-0.1674805
644,8.125,-19.625,15.25,0.0234375,-0.2060547,1.031738,0.4550781,-0.3071289,-0.1674805
645,17,-26.5625,9.375,0.1030273,-0.125,1.059082,0.4550781,-0.3071289,-0.1674805
646,24.9375,-19.5625,2.8125,0.2783203,-0.07080078,1.086914,0.449707,-0.3046875,-0.159668
647,24.5,-6.5,-4.25,0.1108398,-0.02050781,1.067383,0.4580078,-0.3046875,-0.1704102
648,25.875,1.9375,-7.3125,0.007324219,-0.004882813,1.059082,0.4580078,-0.3046875,-0.1704102
649,26.5625,9.4375,-14.3125,-0.03564453,0.009765625,1.079102,0.449707,-0.3046875,-0.1728516
650,34.4375,12.6875,-25.25,-0.03564453,-0.09375,1.086914,0.4472656,-0.3173828,-0.1728516
651,49.5,13.8125,-30.125,-0.1035156,-0.125,1.11084,0.4472656,-0.3173828,-0.1728516
652,65.6875,15.375,-34.125,-0.09960938,-0.2641602,1.138184,0.4443359,-0.3095703,-0.1674805
653,76.8125,13.5625,-31.375,-0.1791992,-0.175293,1.09082,0.4443359,-0.3095703,-0.1674805
654,92.4375,23.6875,-31.5,-0.1669922,-0.1132813,1.130371,0.4580078,-0.3251953,-0.1704102
655,97.9375,26.5625,-25.625,-0.1713867,-0.1479492,1.007813,0.4580078,-0.3198242,-0.1621094
656,89.0625,21.3125,-14.3125,-0.07958984,-0.06689453,0.956543,0.4580078,-0.3198242,-0.1621094
657,71.5,17.4375,-18.875,-0.00390625,0.04833984,0.9682617,0.4633789,-0.3378906,-0.159668
658,51.0625,16.9375,-26.0625,-0.1591797,0.09472656,1.075195,0.4633789,-0.3378906,-0.159668
659,32,25.5625,-25.3125,-0.3823242,0.05224609,1.098633,0.4580078,-0.3300781,-0.159668
660,18.0625,30.375,-30,-0.3623047,0.06396484,1.146484,0.4711914,-0.3457031,-0.1621094
661,9.8125,37.75,-32.375,-0.1313477,0.02929688,1.154297,0.4711914,-0.3457031,-0.1621094
662,3.875,44.6875,-30.5625,-0.230957,0.02929688,1.09082,0.46875,-0.3432617,-0.1572266
663,6.5,44.5625,-23.375,-0.3779297,0.02929688,1.106934,0.4633789,-0.3330078,-0.1674805
664,6.4375,37.5625,-9.375,-0.3740234,0.09472656,1.118652,0.4633789,-0.3330078,-0.1674805
665,5.8125,33.4375,-16.75,-0.2788086,0.03320313,1.114746,0.4741211,-0.3432617,-0.1518555
666,12.3125,28.4375,-20.75,-0.3344727,-0.07861328,1.086914,0.4741211,-0.3432617,-0.1518555
667,25.4375,24.8125,-23.3125,-0.2944336,-0.2250977,1.106934,0.4604492,-0.3457031,-0.1572266
668,44.9375,21.3125,-16.9375,-0.3383789,-0.2675781,1.075195,0.4819336,-0.3354492,-0.1489258
669,54.75,5.6875,-12.1875,-0.8041992,-0.1826172,1.130371,0.4819336,-0.3354492,-0.1489258
670,47.8125,-8.9375,3.8125,-0.7958984,-0.01660156,1.134277,0.484375,-0.3432617,-0.1489258
671,42.875,-21.9375,-9.375,-0.6367188,-0.09375,1.256836,0.484375,-0.3432617,-0.1489258
672,23.875,-44.5,-47.3125,0,-0.125,1.56543,0.484375,-0.3432617,-0.1489258
673,59.75,-13,-37.1875,0.1904297,-0.2871094,1.418945,0.4765625,-0.355957,-0.144043
674,75.25,-10.375,-22.75,0.1147461,-0.2099609,1.3125,0.4765625,-0.355957,-0.144043
675,94.8125,-6.1875,-28.5625,-0.2587891,-0.2641602,1.296387,0.4765625,-0.355957,-0.144043
676,113.875,-10,-33.375,-0.5371094,-0.2714844,1.280762,0.4741211,-0.3583984,-0.1518555
677,129.3125,-15.4375,-31,-0.4814453,-0.2329102,1.296387,0.4741211,-0.3583984,-0.1518555
678,133.4375,-18.75,-32.75,-0.3144531,-0.07470703,1.249023,0.4741211,-0.3583984,-0.1518555
679,130.125,-21.75,-36,-0.3261719,-0.008789063,1.229492,0.4741211,-0.3583984,-0.1518555
680,124.3125,-24.25,-37.6875,-0.3222656,0.009765625,1.241211,0.46875,-0.3764648,-0.1489258
681,119.875,-27.0625,-38.4375,-0.3422852,0.01367188,1.25293,0.46875,-0.3764648,-0.1489258
682,112.625,-31.4375,-39,-0.3623047,0.07177734,1.189941,0.46875,-0.3764648,-0.1489258
683,103.6875,-35.9375,-39,-0.3701172,0.1064453,1.217285,0.4765625,-0.394043,-0.1572266
684,94.6875,-40.25,-38.625,-0.3623047,0.1723633,1.177734,0.4765625,-0.394043,-0.1572266
685,84.1875,-44.625,-38.25,-0.3623047,0.21875,1.173828,0.4765625,-0.394043,-0.1572266
686,71.125,-48.375,-37.375,-0.2983398,0.253418,1.185547,0.4550781,-0.4121094,-0.1542969
687,57.5,-51.1875,-36.6875,-0.2827148,0.2958984,1.185547,0.4550781,-0.4121094,-0.1542969
688,45.0625,-52.875,-36.125,-0.2387695,0.2802734,1.138184,0.4550781,-0.4121094,-0.1542969
689,35.9375,-53.5,-34.75,-0.1992188,0.253418,1.134277,0.4526367,-0.4272461,-0.159668
690,28.5625,-53.6875,-32.8125,-0.2148438,0.21875,1.134277,0.4526367,-0.4272461,-0.159668
691,24.75,-53.1875,-31.625,-0.175293,0.1953125,1.114746,0.4472656,-0.4169922,-0.1674805
692,25.4375,-53.5,-29.375,-0.1713867,0.152832,1.122559,0.4472656,-0.4169922,-0.1674805
693,32.625,-52.9375,-26.5625,-0.1474609,0.152832,1.150391,0.4418945,-0.409668,-0.1704102
694,46.125,-52.0625,-22.4375,-0.1430664,0.1723633,1.146484,0.4394531,-0.4272461,-0.175293
695,59.9375,-51.625,-18.5625,-0.1235352,0.1953125,1.134277,0.4394531,-0.4272461,-0.175293
696,72.0625,-52.0625,-15.5,-0.1235352,0.2456055,1.14209,0.4287109,-0.4248047,-0.1728516
697,80.3125,-52.125,-13.75,-0.1235352,0.2685547,1.126465,0.4257813,-0.4453125,-0.1782227
699,84.8125,-52.75,-12.75,-0.1552734,0.2802734,1.094727,0.4257813,-0.4453125,-0.1782227
700,85.75,-53.125,-11.125,-0.1352539,0.3110352,1.05127,0.4179688,-0.4404297,-0.1806641
701,80.8125,-53.4375,-9.75,-0.1430664,0.3500977,0.9960938,0.4179688,-0.4404297,-0.1806641
702,71.875,-53,-8.25,-0.1352539,0.3925781,0.9526367,0.4204102,-0.4453125,-0.1782227
703,58.875,-52.5,-5.3125,-0.07958984,0.4155273,0.8930664,0.4125977,-0.4580078,-0.175293
704,42.0625,-52.25,-3.0625,-0.07568359,0.4619141,0.8696289,0.4125977,-0.4580078,-0.175293
705,27.1875,-52.125,-0.25,-0.07568359,0.4697266,0.9208984,0.3964844,-0.4453125,-0.175293
706,15.875,-51.9375,2.25,-0.02392578,0.4541016,0.9365234,0.3964844,-0.4453125,-0.175293
707,10.1875,-50.8125,4.625,-0.00390625,0.4194336,0.9365234,0.3994141,-0.4633789,-0.1884766
708,9.8125,-49.3125,6.6875,0.05517578,0.3227539,0.972168,0.3964844,-0.4633789,-0.1831055
709,13.5,-47.1875,8.75,0.03955078,0.2998047,1,0.3964844,-0.4633789,-0.1831055
710,18.25,-45.0625,10.5,0.07910156,0.2841797,1.023926,0.3886719,-0.4555664,-0.1831055
711,22.5,-42.625,12.4375,0.09521484,0.2998047,1.003906,0.3911133,-0.4707031,-0.1938477
712,23.5625,-40,14.3125,0.09912109,0.2685547,1.015625,0.3911133,-0.4707031,-0.1938477
713,21.9375,-37.9375,15.8125,0.07128906,0.3149414,1.011719,0.3857422,-0.4682617,-0.1860352
714,17.5,-36,17.25,0.09082031,0.3461914,1.047363,0.3857422,-0.4682617,-0.1860352
715,10.625,-33.625,18.0625,0.1108398,0.3500977,1.023926,0.3696289,-0.4736328,-0.1938477
716,2.1875,-31.3125,18.9375,0.04345703,0.3964844,1.039551,0.3588867,-0.4785156,-0.1831055
717,-8.75,-29.4375,18.8125,0.04736328,0.3383789,1.015625,0.3588867,-0.4785156,-0.1831055
718,-20.25,-27.8125,17.5625,0.015625,0.3769531,1.059082,0.3671875,-0.4658203,-0.1938477
719,-29.25,-26.375,16.6875,-0.02392578,0.3305664,1.035645,0.3671875,-0.4658203,-0.1938477
720,-36.25,-25.875,14.375,-0.0078125,0.3500977,1.094727,0.3564453,-0.4658203,-0.2124023
721,-39.5,-25.375,12.4375,-0.04003906,0.2841797,1.035645,0.3564453,-0.4682617,-0.2016602
722,-39.1875,-25.9375,10.5,-0.0078125,0.2802734,1.027832,0.3564453,-0.4682617,-0.2016602
723,-35,-26.5625,7.6875,-0.03173828,0.2612305,1.086914,0.3457031,-0.4658203,-0.2045898
724,-28.125,-27.25,5.75,-0.02392578,0.2573242,1.011719,0.3671875,-0.453125,-0.2177734
725,-20,-28.5,3.375,-0.01611328,0.2612305,1.023926,0.3671875,-0.453125,-0.2177734
726,-12.125,-30.125,0.25,-0.00390625,0.2651367,1.003906,0.3540039,-0.4453125,-0.2177734
727,-4.875,-31.25,-3.0625,0.01123047,0.2612305,1.027832,0.3540039,-0.4453125,-0.2177734
728,1.75,-30.9375,-5.9375,0.007324219,0.3110352,0.9682617,0.340332,-0.4555664,-0.2177734
729,6.3125,-30.5625,-8.9375,0.015625,0.3188477,0.9804688,0.340332,-0.453125,-0.2045898
730,9.25,-28.9375,-11.6875,0.01953125,0.3574219,0.9882813,0.340332,-0.453125,-0.2045898
731,11.5625,-26.4375,-13.6875,0.0234375,0.3730469,0.9326172,0.340332,-0.4555664,-0.2124023
732,11.4375,-23.25,-14.375,0.06298828,0.4116211,0.984375,0.340332,-0.4555664,-0.2124023
733,10.0625,-19.5625,-14.6875,0.04345703,0.3769531,1.011719,0.3457031,-0.4609375,-0.2045898
734,7.875,-15.0625,-13.8125,0.03515625,0.3999023,1.043457,0.3378906,-0.4555664,-0.2070313
735,6.5625,-10.8125,-11.5625,0.05517578,0.3925781,1.067383,0.3378906,-0.4555664,-0.2070313
736,4.6875,-6.625,-8.625,0.03955078,0.3613281,1.075195,0.3295898,-0.4580078,-0.2124023
737,3.375,-3.875,-5.6875,0.05126953,0.3730469,1.126465,0.3378906,-0.4633789,-0.2177734
738,2.6875,-1.5,-3.5625,0.09082031,0.3110352,1.138184,0.3378906,-0.4633789,-0.2177734
739,2.5,0.1875,-1.125,0.1191406,0.2724609,1.130371,0.3349609,-0.453125,-0.2148438
740,3.75,1.875,1.0625,0.1269531,0.2802734,1.102539,0.3349609,-0.453125,-0.2148438
741,5.75,3,2.875,0.1748047,0.2802734,1.126465,0.3349609,-0.4658203,-0.2094727
742,8,3.75,4.0625,0.2026367,0.2841797,1.09082,0.3271484,-0.4580078,-0.2094727
743,9.9375,5.1875,4.875,0.222168,0.2763672,1.05127,0.3271484,-0.4580078,-0.2094727
744,11.125,6,5.1875,0.2382813,0.2880859,1.063477,0.3325195,-0.453125,-0.2148438
745,10.75,6.6875,5.4375,0.2026367,0.3037109,1.011719,0.3325195,-0.453125,-0.2148438
746,10,7.125,4.75,0.2304688,0.3461914,1.003906,0.3295898,-0.4682617,-0.2124023
747,7.3125,7.25,4.4375,0.2739258,0.3691406,1.027832,0.3349609,-0.4580078,-0.2070313
748,4.5,7.6875,3.4375,0.234375,0.3613281,0.9804688,0.3349609,-0.4580078,-0.2070313
749,1.75,7.625,1.5625,0.2583008,0.3925781,1.035645,0.3378906,-0.4707031,-0.2202148
750,-0.0625,7.75,-0.9375,0.2739258,0.3344727,1.027832,0.3242188,-0.4609375,-0.1992188
751,-0.6875,8.1875,-4,0.2304688,0.3574219,1.007813,0.3242188,-0.4609375,-0.1992188
752,-0.875,8.5625,-6.75,0.1904297,0.3613281,1.071289,0.3349609,-0.4658203,-0.2124023
753,-0.5625,9.5625,-9.3125,0.2026367,0.3500977,1.083008,0.3349609,-0.4658203,-0.2124023
754,0.0625,10,-11.375,0.1625977,0.3769531,1.138184,0.3349609,-0.4658203,-0.2045898
755,0.4375,11.25,-12.75,0.1030273,0.4077148,1.098633,0.340332,-0.4633789,-0.2124023
756,0.125,13,-13.4375,0.1030273,0.3847656,1.162109,0.340332,-0.4633789,-0.2124023
757,-0.9375,14.8125,-12.5625,0.05517578,0.3925781,1.150391,0.340332,-0.4658203,-0.2070313
758,-2.9375,16.1875,-11.0625,0.03955078,0.4116211,1.185547,0.340332,-0.4658203,-0.2070313
759,-5.3125,16.875,-8.5625,0.015625,0.3730469,1.217285,0.3378906,-0.4658203,-0.2202148
760,-7.5625,17.4375,-5.5,0.03515625,0.3847656,1.185547,0.340332,-0.4682617,-0.1992188
761,-9.375,17.75,-2.3125,0.02734375,0.3999023,1.193848,0.340332,-0.4682617,-0.1992188
762,-10.25,17.6875,0.3125,0.0234375,0.3422852,1.177734,0.3510742,-0.4658203,-0.2016602
764,-10.25,16.9375,3.0625,0.03955078,0.3422852,1.150391,0.3432617,-0.4633789,-0.2148438
765,-10.5,16.3125,5,0.04736328,0.2919922,1.138184,0.3432617,-0.4633789,-0.2148438
766,-10.4375,15.3125,6.0625,0.08300781,0.3149414,1.114746,0.3564453,-0.4555664,-0.2070313
767,-10.625,14.5,6.0625,0.06298828,0.3383789,1.11084,0.3564453,-0.4555664,-0.2070313
768,-11.1875,13.4375,5.625,0.1230469,0.3500977,1.09082,0.3457031,-0.4633789,-0.2016602
769,-12.0625,13.3125,4.375,0.1108398,0.3188477,1.079102,0.3486328,-0.4609375,-0.1914063
770,-12.75,13.5,2.4375,0.1665039,0.3227539,1.059082,0.3486328,-0.4609375,-0.1914063
771,-12.25,14.0625,0.3125,0.1787109,0.3383789,1.11084,0.340332,-0.4506836,-0.2016602
772,-11.8125,15.3125,-1.8125,0.1425781,0.3037109,1.106934,0.340332,-0.4506836,-0.2016602
773,-12.3125,16.625,-4.3125,0.1269531,0.3383789,1.094727,0.3486328,-0.4580078,-0.1962891
774,-13.375,18.3125,-6.125,0.1191406,0.3344727,1.094727,0.3618164,-0.4453125,-0.1992188
775,-16,19.5,-8,0.1230469,0.3266602,1.059082,0.3618164,-0.4453125,-0.1992188
776,-18.5,20.25,-9.0625,0.08691406,0.3344727,1.079102,0.3618164,-0.4428711,-0.2045898
777,-20.625,20.5625,-8.875,0.03515625,0.3188477,1.098633,0.3618164,-0.4404297,-0.2045898
778,-21.75,20.5,-8.6875,0.01123047,0.2958984,1.122559,0.3618164,-0.4404297,-0.2045898
779,-21,19.8125,-6.9375,-0.01611328,0.2880859,1.118652,0.3696289,-0.4375,-0.1938477
780,-18.375,19,-4.9375,-0.02783203,0.2880859,1.122559,0.3696289,-0.4375,-0.1938477
781,-14.5625,17.5625,-2.75,-0.03173828,0.237793,1.05127,0.3779297,-0.4453125,-0.1992188
782,-10.3125,15.875,-0.5,-0.04394531,0.2338867,1.055176,0.375,-0.4477539,-0.2094727
783,-5.5625,13.875,1.9375,-0.05566406,0.2651367,1.003906,0.375,-0.4477539,-0.2094727
784,0.1875,11.625,4.0625,0.003417969,0.2573242,0.9760742,0.3779297,-0.4301758,-0.1992188
785,6.25,9.1875,6.3125,0.01123047,0.2070313,0.9248047,0.3779297,-0.4301758,-0.1992188
786,15.6875,6.25,7.4375,0.02734375,0.203125,0.9013672,0.3725586,-0.4477539,-0.1962891
787,24.75,4.3125,7.8125,0.05126953,0.203125,0.8696289,0.3671875,-0.4428711,-0.1992188
788,33.9375,2.9375,6.625,0.09521484,0.1992188,0.8696289,0.3671875,-0.4428711,-0.1992188
789,41.125,2,4.75,0.09912109,0.2724609,0.8974609,0.3725586,-0.4428711,-0.1914063
790,44.25,1.625,2.4375,0.08691406,0.3266602,0.8891602,0.3725586,-0.4453125,-0.2045898
791,43.5,1.5625,-0.375,0.1030273,0.3730469,0.9013672,0.3725586,-0.4453125,-0.2045898
792,39.1875,2.25,-3.3125,0.05908203,0.4194336,0.9208984,0.3696289,-0.4555664,-0.1914063
793,32,3.0625,-5.75,0.05908203,0.4580078,0.8735352,0.3696289,-0.4555664,-0.1914063
794,21.6875,3.875,-7.625,0.01953125,0.4887695,0.9248047,0.3725586,-0.4555664,-0.2045898
795,11.4375,4.75,-8.5625,-0.04394531,0.5043945,0.9487305,0.3833008,-0.4580078,-0.1860352
796,2.25,6.0625,-8.4375,-0.07177734,0.4389648,0.940918,0.3833008,-0.4580078,-0.1860352
797,-4.625,8.125,-7.5,-0.04003906,0.4697266,0.9960938,0.3857422,-0.453125,-0.1884766
798,-8.3125,10.25,-5.5625,-0.05957031,0.4272461,0.9760742,0.3857422,-0.453125,-0.1884766
799,-10.875,12.25,-3.0625,-0.07177734,0.4038086,1.015625,0.3886719,-0.4658203,-0.1938477
800,-11.5,13.8125,-0.375,-0.09960938,0.3808594,1.063477,0.3833008,-0.4580078,-0.1914063
801,-10.875,14.25,3.3125,-0.1113281,0.4038086,1.059082,0.3833008,-0.4580078,-0.1914063
802,-8.25,14.5,7.25,-0.1552734,0.3769531,1.130371,0.3779297,-0.4633789,-0.1914063
803,-4,13.625,11.0625,-0.1591797,0.3461914,1.150391,0.3833008,-0.4633789,-0.1914063
804,1,12.0625,14.4375,-0.175293,0.3188477,1.173828,0.3833008,-0.4633789,-0.1914063
805,6.6875,10.5625,17.1875,-0.1552734,0.3266602,1.169922,0.3779297,-0.4658203,-0.1860352
806,12.5,8.8125,19.9375,-0.09130859,0.3461914,1.130371,0.3779297,-0.4658203,-0.1860352
807,17.75,7.25,21.875,-0.08740234,0.3037109,1.158203,0.3803711,-0.4633789,-0.1962891
808,22,5.5625,23.4375,-0.07568359,0.2880859,1.106934,0.3803711,-0.4633789,-0.1962891
809,25.4375,3.8125,24,-0.07958984,0.2958984,1.086914,0.3803711,-0.4633789,-0.1962891
810,28.5625,2.25,24.25,-0.05566406,0.2880859,1.114746,0.375,-0.4633789,-0.1831055
811,30.4375,0.5,24.25,-0.02783203,0.3149414,1.075195,0.375,-0.4633789,-0.1831055
812,31.375,-1.0625,23.5625,-0.05175781,0.3188477,1.130371,0.375,-0.4633789,-0.1831055
813,31.5,-2.9375,22.625,-0.02001953,0.3037109,1.055176,0.3779297,-0.4785156,-0.1914063
814,31.375,-4.25,21.4375,0,0.3266602,1.083008,0.3779297,-0.4785156,-0.1914063
815,30.9375,-5.1875,20.25,0.04736328,0.3925781,1.09082,0.3779297,-0.4785156,-0.1914063
816,30.3125,-6.375,18.5,0.03955078,0.3652344,1.09082,0.3696289,-0.4887695,-0.1782227
817,29.4375,-6.75,16.5,0.07519531,0.3613281,1.083008,0.3696289,-0.4887695,-0.1782227
818,29.1875,-7.0625,14.625,0.09082031,0.3999023,1.067383,0.3696289,-0.4887695,-0.1782227
819,29.0625,-7.9375,12.8125,0.1069336,0.4233398,1.075195,0.3696289,-0.4887695,-0.1782227
820,29.375,-7.875,10.5625,0.09521484,0.3925781,1.09082,0.3833008,-0.4863281,-0.1914063
821,29.625,-8.0625,8.5625,0.1386719,0.3886719,1.09082,0.3833008,-0.4863281,-0.1914063
822,29.75,-7.3125,7.3125,0.1508789,0.4272461,1.114746,0.3833008,-0.4863281,-0.1914063
823,30.125,-7.125,6.125,0.1469727,0.4619141,1.106934,0.3803711,-0.5043945,-0.1806641
824,30.3125,-7.125,5.75,0.1469727,0.4580078,1.11084,0.3803711,-0.5043945,-0.1806641
825,29.75,-7.125,6.375,0.1508789,0.4580078,1.094727,0.3803711,-0.5043945,-0.1806641
826,29,-7.1875,7.4375,0.1586914,0.4619141,1.106934,0.3618164,-0.5117188,-0.1806641
827,28.1875,-7.3125,9.375,0.1787109,0.4926758,1.102539,0.3618164,-0.5117188,-0.1806641
829,27.5,-7.4375,11.9375,0.1748047,0.5351563,1.106934,0.3725586,-0.5092773,-0.1806641
830,25.875,-7.6875,14.8125,0.2026367,0.546875,1.094727,0.3671875,-0.5117188,-0.1806641
831,24.8125,-8.75,17.375,0.1904297,0.5390625,1.079102,0.3671875,-0.5117188,-0.1806641
832,24.25,-9.75,20.25,0.1865234,0.5507813,1.122559,0.3696289,-0.5146484,-0.1782227
833,24.375,-11.3125,23.3125,0.1865234,0.546875,1.079102,0.3696289,-0.5146484,-0.1782227
834,25.3125,-12.875,25.875,0.206543,0.5429688,1.106934,0.3642578,-0.5195313,-0.1806641
835,27.125,-14.25,28.9375,0.2382813,0.5351563,1.035645,0.3588867,-0.5170898,-0.1831055
836,29.25,-15.9375,31.5,0.2583008,0.5776367,1.035645,0.3588867,-0.5170898,-0.1831055
837,32.375,-16.6875,34.3125,0.2900391,0.5585938,0.9882813,0.3671875,-0.5297852,-0.1782227
838,35.1875,-17.1875,37.3125,0.3061523,0.5664063,0.956543,0.3540039,-0.5400391,-0.1806641
839,36.9375,-16.875,40,0.3300781,0.5776367,0.9643555,0.3540039,-0.5400391,-0.1806641
840,38.5625,-16.25,43.125,0.3457031,0.6088867,0.9448242,0.3564453,-0.5375977,-0.1782227
841,38.875,-15.5,45.6875,0.3300781,0.5932617,0.9326172,0.3564453,-0.5375977,-0.1782227
842,37.6875,-14.6875,48.875,0.3100586,0.6049805,0.972168,0.3540039,-0.5527344,-0.175293
843,35.4375,-13.5625,51.375,0.3579102,0.6088867,0.940918,0.3349609,-0.5551758,-0.1860352
844,32.1875,-12.8125,53.0625,0.3417969,0.6552734,0.9804688,0.3349609,-0.5551758,-0.1860352
845,28.375,-11.5625,54.625,0.3417969,0.6435547,0.940918,0.3457031,-0.5527344,-0.1806641
846,24.875,-9.8125,56,0.3217773,0.6318359,0.9804688,0.3457031,-0.5527344,-0.1806641
847,20.5625,-7.625,57.75,0.3300781,0.6279297,0.9804688,0.3325195,-0.5605469,-0.1674805
848,15.5,-5.1875,59.4375,0.3139648,0.6435547,0.9604492,0.3242188,-0.5708008,-0.1782227
849,10.8125,-2.625,61.1875,0.262207,0.6206055,0.972168,0.3242188,-0.5708008,-0.1782227
850,5.25,-0.75,62.9375,0.2382813,0.6279297,1.011719,0.3271484,-0.5756836,-0.1728516
851,0.375,0.625,65,0.2143555,0.6318359,1.027832,0.3217773,-0.5708008,-0.1782227
852,-3.5,2.1875,66.625,0.1943359,0.6206055,1.075195,0.3217773,-0.5708008,-0.1782227
853,-7.3125,3,68.5,0.1308594,0.6435547,1.067383,0.3139648,-0.5888672,-0.1728516
854,-10.8125,3.3125,70.3125,0.1508789,0.6010742,1.075195,0.3139648,-0.5888672,-0.1728516
855,-13.8125,3.1875,71.625,0.09912109,0.5932617,1.130371,0.3188477,-0.5810547,-0.1650391
856,-16.0625,2.5625,72.6875,0.09912109,0.6088867,1.075195,0.3085938,-0.5756836,-0.1782227
857,-17.5,2,73.375,0.09912109,0.6088867,1.102539,0.3085938,-0.5756836,-0.1782227
858,-17.6875,1.375,73.625,0.1230469,0.5585938,1.059082,0.3085938,-0.5859375,-0.1704102
859,-15.8125,1.125,73.125,0.1425781,0.496582,1.027832,0.3085938,-0.5859375,-0.1704102
860,-13.125,0.8125,72.75,0.08691406,0.4736328,1.003906,0.3056641,-0.5786133,-0.1806641
861,-9.3125,0.25,71.9375,0.1665039,0.4619141,0.9960938,0.2978516,-0.5834961,-0.1806641
862,-4.8125,-0.3125,71.1875,0.1586914,0.4580078,0.9130859,0.2978516,-0.5834961,-0.1806641
863,-0.5,-0.5,69.8125,0.2104492,0.4501953,0.9326172,0.300293,-0.5786133,-0.1806641
864,2.6875,0.0625,68.0625,0.2304688,0.4619141,0.8735352,0.300293,-0.5859375,-0.1674805
865,4.5625,0.875,66.5,0.2543945,0.4272461,0.8891602,0.300293,-0.5859375,-0.1674805
866,4.125,2.0625,64.375,0.2822266,0.4350586,0.9052734,0.2924805,-0.5913086,-0.1806641
867,1.875,2.9375,61.9375,0.2543945,0.4155273,0.9091797,0.2924805,-0.5913086,-0.1806641
868,-3.375,3.75,59.375,0.2822266,0.4580078,0.8974609,0.2949219,-0.5913086,-0.1782227
869,-9.875,4.5625,56.625,0.2304688,0.4814453,0.9013672,0.2895508,-0.5961914,-0.1782227
870,-16.375,5.4375,54.5,0.2504883,0.4697266,0.8813477,0.2895508,-0.5961914,-0.1782227
871,-21.5625,5.1875,51.75,0.222168,0.4311523,0.9326172,0.2895508,-0.5986328,-0.175293
872,-25.625,4.6875,49.5625,0.222168,0.4233398,0.9326172,0.2895508,-0.5986328,-0.175293
873,-27.3125,3.9375,47,0.2382813,0.3847656,0.8852539,0.2871094,-0.5913086,-0.1782227
874,-26.125,2.625,44.9375,0.206543,0.3383789,0.8974609,0.2763672,-0.59375,-0.1831055
875,-22.4375,1,42.9375,0.2143555,0.3188477,0.8891602,0.2763672,-0.59375,-0.1831055
876,-17.0625,-1.0625,40.8125,0.2583008,0.3266602,0.8852539,0.2788086,-0.5888672,-0.1782227
877,-11.4375,-3.4375,39.125,0.2382813,0.3227539,0.8339844,0.2602539,-0.6015625,-0.1860352
878,-5,-6.3125,36.875,0.234375,0.2998047,0.8579102,0.2602539,-0.6015625,-0.1860352
879,0.375,-8.75,34.375,0.2700195,0.3500977,0.8378906,0.2709961,-0.5913086,-0.1806641
880,4.6875,-10.9375,31.125,0.3139648,0.3808594,0.8696289,0.2709961,-0.5913086,-0.1806641
881,7.375,-12.8125,26.8125,0.3300781,0.3691406,0.8974609,0.2709961,-0.5859375,-0.1831055
882,8.4375,-13.9375,22.0625,0.3339844,0.4155273,0.9208984,0.2631836,-0.59375,-0.1860352
883,8.1875,-14.4375,17.8125,0.3417969,0.4697266,0.9208984,0.2631836,-0.59375,-0.1860352
884,6.375,-13.375,14,0.3535156,0.5200195,0.8852539,0.265625,-0.59375,-0.1914063
885,1.9375,-11.0625,10.875,0.3339844,0.5429688,0.9208984,0.265625,-0.59375,-0.1914063
886,-3.5,-7.4375,8.875,0.2978516,0.5239258,0.984375,0.2631836,-0.6040039,-0.1831055
887,-11.625,-3.25,8.1875,0.2304688,0.5703125,0.9682617,0.2602539,-0.6064453,-0.1806641
888,-21.3125,0.75,8.0625,0.1987305,0.5546875,1.031738,0.2602539,-0.6064453,-0.1806641
889,-29.9375,4.3125,9.9375,0.1230469,0.5429688,1.067383,0.2685547,-0.5986328,-0.175293
890,-38.125,6.625,12.0625,0.05908203,0.527832,1.094727,0.265625,-0.5834961,-0.1884766
891,-43.375,8,15.375,0.01953125,0.4887695,1.166016,0.265625,-0.5834961,-0.1884766
892,-45.375,8.25,18,-0.01611328,0.4077148,1.181641,0.2631836,-0.5834961,-0.1884766
894,-42.3125,7.8125,19.75,-0.04785156,0.3344727,1.20166,0.2631836,-0.5834961,-0.1884766
895,-34.125,6.9375,21.6875,0.003417969,0.2612305,1.25293,0.2578125,-0.5913086,-0.2016602
896,-23.5625,5.875,23.375,-0.02783203,0.2456055,1.213379,0.2602539,-0.5786133,-0.1938477
897,-11.9375,5.0625,24.625,-0.02783203,0.2573242,1.185547,0.2602539,-0.5786133,-0.1938477
898,-1.375,4.3125,25.25,0.01123047,0.2880859,1.138184,0.265625,-0.5810547,-0.1831055
899,7.8125,3.75,25.5,0.015625,0.2880859,1.154297,0.265625,-0.5810547,-0.1831055
900,13.8125,3.8125,25.25,0.02734375,0.3110352,1.126465,0.2578125,-0.5732422,-0.1860352
901,16.9375,3.8125,25.3125,0.02734375,0.3422852,1.09082,0.2578125,-0.5810547,-0.1860352
902,17.75,4.9375,24.9375,0.06298828,0.3344727,1.027832,0.2578125,-0.5810547,-0.1860352
903,15.8125,6,24.1875,0.05908203,0.3691406,1.083008,0.2578125,-0.5888672,-0.1962891
904,12.875,7.625,23.0625,0.06738281,0.3769531,1.071289,0.2548828,-0.5913086,-0.1884766
905,9.0625,9.5,21.5,0.08300781,0.3769531,1.09082,0.2548828,-0.5913086,-0.1884766
906,5.4375,11,20.5,0.05126953,0.3540039,1.130371,0.2495117,-0.5888672,-0.1860352
907,2.5,12.5625,18.25,0.07519531,0.3500977,1.158203,0.2495117,-0.5888672,-0.1860352
908,1.1875,14.25,17,0.05908203,0.3266602,1.169922,0.2578125,-0.59375,-0.1884766
909,0.9375,15.9375,15.625,0.0234375,0.3076172,1.162109,0.2578125,-0.59375,-0.1806641
910,0.9375,17.6875,14.625,0.06738281,0.2763672,1.166016,0.2578125,-0.59375,-0.1806641
911,0.6875,19.4375,13.9375,0.07519531,0.3076172,1.189941,0.2495117,-0.59375,-0.1782227
912,-0.4375,20.5,13.375,0.0234375,0.3076172,1.209473,0.2495117,-0.59375,-0.1782227
913,-2.25,21.0625,12.75,0.015625,0.3110352,1.25293,0.2578125,-0.5888672,-0.1884766
914,-3.9375,20.4375,12.375,-0.00390625,0.3188477,1.280762,0.2548828,-0.5913086,-0.1831055
915,-5.9375,19.5625,11.8125,-0.01611328,0.3110352,1.260742,0.2548828,-0.5913086,-0.1831055
916,-8.125,18.4375,11.125,0,0.2880859,1.268555,0.2524414,-0.59375,-0.1831055
917,-10,17,10.4375,0.04345703,0.2958984,1.260742,0.2548828,-0.5859375,-0.1704102
918,-11.25,16.125,9.875,0.06298828,0.2651367,1.256836,0.2548828,-0.5859375,-0.1704102
919,-10.9375,15.25,9.6875,0.03125,0.2612305,1.20166,0.2709961,-0.5810547,-0.1806641
920,-10,14.625,9.1875,0.05517578,0.222168,1.197754,0.2709961,-0.5810547,-0.1806641
921,-8.3125,14,8.6875,0.04736328,0.2338867,1.185547,0.2709961,-0.5859375,-0.1884766
922,-6.125,13.375,8.625,0.09082031,0.2299805,1.150391,0.2631836,-0.5859375,-0.1914063
923,-4.875,12.625,8.375,0.05126953,0.2260742,1.106934,0.2631836,-0.5859375,-0.1914063
924,-2.875,11.625,8.25,0.1030273,0.2109375,1.05127,0.2602539,-0.5859375,-0.1831055
925,-1.9375,10.25,7.8125,0.1108398,0.2260742,1.067383,0.2602539,-0.5859375,-0.1831055
926,-0.6875,8.625,6.9375,0.1108398,0.1835938,1.063477,0.2739258,-0.5834961,-0.1938477
927,0.3125,7.3125,5.9375,0.1108398,0.1875,1.067383,0.2709961,-0.5913086,-0.1914063
928,1,5.5,4.3125,0.1347656,0.1875,1.027832,0.2709961,-0.5913086,-0.1914063
929,1.375,4.125,2.3125,0.1347656,0.1875,1.063477,0.2709961,-0.5888672,-0.1938477
930,0.5,2.875,0.0625,0.1943359,0.1953125,1.007813,0.2788086,-0.5834961,-0.1831055
931,-0.6875,2.125,-2.0625,0.1826172,0.253418,1,0.2788086,-0.5834961,-0.1831055
932,-2.9375,1.3125,-4.0625,0.1704102,0.2456055,0.9960938,0.2602539,-0.5786133,-0.1884766
933,-5.5625,0.375,-6.125,0.1508789,0.222168,0.9760742,0.2602539,-0.5786133,-0.1884766
934,-7.9375,-0.25,-8.0625,0.1665039,0.2416992,0.9604492,0.2709961,-0.5961914,-0.1806641
935,-9.6875,-1.25,-9.5625,0.1347656,0.2573242,0.9526367,0.265625,-0.5810547,-0.1884766
936,-10.375,-2.3125,-11.25,0.1425781,0.2260742,0.9643555,0.265625,-0.5810547,-0.1884766
937,-9.4375,-3.25,-12.625,0.1147461,0.2495117,0.9326172,0.2602539,-0.5859375,-0.1860352
938,-6.875,-4.0625,-14,0.1547852,0.1953125,0.9487305,0.2602539,-0.5859375,-0.1860352
939,-3.4375,-4.625,-15.375,0.1269531,0.2338867,0.9487305,0.2685547,-0.5810547,-0.1884766
940,-0.625,-5.25,-16.25,0.1508789,0.2260742,0.9287109,0.265625,-0.5756836,-0.1831055
941,1.6875,-5.375,-17.25,0.1748047,0.2841797,0.9604492,0.265625,-0.5756836,-0.1831055
942,2.875,-5.5625,-17.75,0.1547852,0.2802734,0.940918,0.2739258,-0.5756836,-0.1914063
943,3.625,-5.6875,-18.25,0.1704102,0.2958984,0.956543,0.2709961,-0.5810547,-0.1938477
944,3.5,-5.4375,-18.25,0.1748047,0.3227539,0.9604492,0.2709961,-0.5810547,-0.1938477
945,3.375,-5.625,-17.75,0.1748047,0.3188477,0.9487305,0.2709961,-0.5810547,-0.1938477
946,3.4375,-5.1875,-16.625,0.1704102,0.3110352,0.972168,0.2709961,-0.5810547,-0.1938477
947,2.3125,-5.3125,-15.75,0.1865234,0.3227539,1.007813,0.265625,-0.5859375,-0.1831055
948,1.3125,-4.875,-14.5,0.1865234,0.3461914,1.047363,0.265625,-0.5859375,-0.1831055
949,-0.1875,-4.6875,-13,0.2304688,0.3305664,1.059082,0.265625,-0.5859375,-0.1831055
950,-2.625,-4.25,-11.4375,0.2143555,0.3461914,1.031738,0.2602539,-0.5786133,-0.1860352
951,-5.8125,-4.1875,-9.875,0.1748047,0.3886719,1.071289,0.2602539,-0.5786133,-0.1860352
952,-8.625,-5.125,-8.1875,0.1704102,0.4116211,1.106934,0.2602539,-0.5786133,-0.1860352
953,-11.875,-6.625,-6.3125,0.1147461,0.4311523,1.075195,0.2739258,-0.5786133,-0.1860352
954,-14.4375,-8.9375,-4.4375,0.1108398,0.3999023,1.122559,0.2739258,-0.5786133,-0.1860352
955,-16.0625,-11.5625,-2.8125,0.1347656,0.3847656,1.134277,0.2739258,-0.5786133,-0.1860352
956,-15.9375,-14.4375,-1.875,0.1108398,0.3808594,1.14209,0.2763672,-0.5732422,-0.1884766
957,-13.625,-17.1875,-1.3125,0.1069336,0.3188477,1.169922,0.2763672,-0.5732422,-0.1884766
959,-9.1875,-19.8125,-1.625,0.1269531,0.3076172,1.169922,0.2763672,-0.5732422,-0.1884766
960,-2.6875,-21.6875,-2.4375,0.08691406,0.2612305,1.154297,0.2763672,-0.5732422,-0.1884766
961,3.6875,-23.3125,-3.9375,0.1826172,0.2841797,1.126465,0.2631836,-0.5708008,-0.1938477
962,8.625,-24.3125,-5.8125,0.1787109,0.2802734,1.130371,0.2631836,-0.5708008,-0.1938477
963,11.625,-25.0625,-8,0.1625977,0.3266602,1.158203,0.2631836,-0.5708008,-0.1938477
964,11.5,-25.1875,-10.625,0.1508789,0.3574219,1.122559,0.2578125,-0.5859375,-0.1884766
965,8.9375,-25.875,-12.6875,0.1586914,0.3808594,1.138184,0.2709961,-0.5708008,-0.2016602
966,4.8125,-26.625,-14.75,0.1625977,0.4155273,1.166016,0.2709961,-0.5708008,-0.2016602
967,-1.125,-27.375,-16.4375,0.1347656,0.3999023,1.122559,0.2495117,-0.5756836,-0.1992188
968,-7.4375,-28.6875,-17.5625,0.1191406,0.4272461,1.09082,0.2495117,-0.5756836,-0.1992188
969,-13.875,-29.875,-18.375,0.1308594,0.3999023,1.075195,0.2470703,-0.5786133,-0.1992188
970,-18,-30.4375,-18.875,0.1230469,0.3999023,1.05127,0.2495117,-0.5683594,-0.1831055
971,-20.625,-30.875,-19.25,0.1347656,0.3808594,1.059082,0.2495117,-0.5683594,-0.1831055
972,-20.875,-31.375,-19.5625,0.1425781,0.3266602,1.059082,0.2470703,-0.5732422,-0.1992188
973,-19.3125,-31.75,-20.4375,0.1230469,0.3227539,1.067383,0.2470703,-0.5732422,-0.1992188
974,-16.4375,-32.3125,-21.125,0.1230469,0.3344727,1.047363,0.2524414,-0.5605469,-0.2045898
975,-13.1875,-32.625,-21.8125,0.1469727,0.3110352,1.071289,0.2495117,-0.5732422,-0.2148438
976,-9.6875,-32.875,-23.0625,0.1787109,0.3422852,1.055176,0.2495117,-0.5732422,-0.2148438
977,-6.375,-33.375,-24.25,0.1625977,0.3574219,1.035645,0.2387695,-0.5605469,-0.2045898
978,-3.3125,-33.3125,-25.375,0.1865234,0.3808594,1.019531,0.2416992,-0.5605469,-0.2045898
979,-0.4375,-33.4375,-27,0.1748047,0.3769531,1.047363,0.2416992,-0.5605469,-0.2045898
980,1.6875,-33.0625,-28.25,0.2026367,0.4077148,1.011719,0.2441406,-0.5581055,-0.1992188
981,3.3125,-32.5,-28.875,0.2265625,0.4194336,0.9760742,0.2441406,-0.5581055,-0.1992188
982,4.125,-31.5625,-29.125,0.2104492,0.4194336,0.9960938,0.2363281,-0.5527344,-0.2070313
983,4.5,-30.6875,-29,0.2143555,0.4077148,1,0.2338867,-0.5605469,-0.2094727
984,4.5,-29.5625,-28.3125,0.2421875,0.4501953,1.031738,0.2338867,-0.5605469,-0.2094727
985,4.25,-28.375,-27.6875,0.2104492,0.4194336,1.011719,0.2338867,-0.5708008,-0.2177734
986,4.8125,-27.1875,-26.6875,0.2265625,0.4038086,1.015625,0.2338867,-0.5708008,-0.2177734
987,6.125,-25.8125,-26.1875,0.262207,0.4350586,1.039551,0.2387695,-0.5581055,-0.2148438
988,8.6875,-23.5625,-25.1875,0.2739258,0.4116211,1.023926,0.2363281,-0.5629883,-0.2070313
989,11.625,-20.875,-24.625,0.3300781,0.4233398,1.035645,0.2363281,-0.5629883,-0.2070313
990,14.0625,-17.8125,-23.9375,0.2939453,0.4389648,1.075195,0.2470703,-0.5654297,-0.2045898
991,16,-15,-23.6875,0.2939453,0.4428711,1.067383,0.230957,-0.5581055,-0.2045898
992,16,-11.75,-23.4375,0.2939453,0.4619141,1.09082,0.230957,-0.5581055,-0.2045898
993,14.5,-8.6875,-22.9375,0.2939453,0.527832,1.134277,0.230957,-0.5683594,-0.1962891
994,10.25,-5.8125,-21.9375,0.2783203,0.527832,1.122559,0.230957,-0.5683594,-0.1962891
995,4.625,-3.75,-21.3125,0.2504883,0.5390625,1.130371,0.2285156,-0.5708008,-0.1992188
996,-1.0625,-2.1875,-20.1875,0.2460938,0.5507813,1.146484,0.2231445,-0.5629883,-0.1992188
997,-5.6875,-1.9375,-18.8125,0.2460938,0.5625,1.130371,0.2231445,-0.5629883,-0.1992188
998,-7.5625,-2.0625,-17.25,0.234375,0.4926758,1.138184,0.230957,-0.5581055,-0.2124023
999,-6.5,-2.3125,-15.75,0.2304688,0.4428711,1.130371,0.230957,-0.5581055,-0.2124023
1000,-3.5625,-2.9375,-14.8125,0.222168,0.4428711,1.094727,0.230957,-0.5551758,-0.2016602
1001,1,-3.5,-13.8125,0.262207,0.3964844,1.094727,0.2338867,-0.5654297,-0.2148438
1002,7.4375,-4.5625,-12.75,0.2421875,0.3964844,1.063477,0.2338867,-0.5654297,-0.2148438
1003,15.3125,-5.3125,-11.8125,0.2460938,0.3925781,1.047363,0.2338867,-0.5527344,-0.2045898
1004,22.9375,-6,-11.1875,0.2739258,0.3691406,1.011719,0.230957,-0.5654297,-0.2124023
1005,31.3125,-6.4375,-10.9375,0.262207,0.3769531,0.984375,0.230957,-0.5654297,-0.2124023
1006,37.9375,-7.5,-10.75,0.3061523,0.3691406,0.9448242,0.230957,-0.5654297,-0.2045898
1007,43.3125,-8.3125,-10.6875,0.2822266,0.4038086,0.9326172,0.230957,-0.5654297,-0.2045898
1008,46.1875,-9.125,-10.375,0.2900391,0.4541016,0.9091797,0.2255859,-0.5732422,-0.2016602
1009,47.25,-10.25,-10.4375,0.2783203,0.4501953,0.8891602,0.230957,-0.5756836,-0.2016602
1010,46.5,-11.5625,-10.6875,0.2700195,0.4853516,0.8852539,0.230957,-0.5756836,-0.2016602
1011,44.375,-12.625,-11.5,0.2939453,0.4887695,0.8457031,0.2177734,-0.5859375,-0.1992188
1012,42.75,-13.3125,-12.5625,0.3061523,0.4887695,0.8061523,0.2177734,-0.5859375,-0.1992188
1013,41,-14.0625,-13.75,0.3178711,0.4926758,0.8183594,0.2255859,-0.5756836,-0.1962891
1014,39.75,-14.125,-15.75,0.3339844,0.5200195,0.8022461,0.2202148,-0.5859375,-0.1914063
1015,38.125,-13.8125,-16.875,0.3535156,0.5351563,0.8100586,0.2202148,-0.5859375,-0.1914063
1016,35.625,-13.3125,-18.25,0.3657227,0.5664063,0.8022461,0.2285156,-0.5859375,-0.1860352
1017,30.875,-13.1875,-19.875,0.3457031,0.5664063,0.8061523,0.2363281,-0.59375,-0.1831055
1018,24.6875,-12.875,-20.5,0.3535156,0.597168,0.7749023,0.2363281,-0.59375,-0.1831055
1019,17.4375,-12.4375,-20.9375,0.3300781,0.5932617,0.8100586,0.2285156,-0.59375,-0.1860352
1020,9.0625,-12.0625,-20.9375,0.3178711,0.612793,0.8100586,0.2285156,-0.59375,-0.1860352
1021,0.875,-11.5625,-20.875,0.3139648,0.6088867,0.8579102,0.2202148,-0.59375,-0.1914063
1022,-6.4375,-11.8125,-20.625,0.3061523,0.6010742,0.8457031,0.230957,-0.5986328,-0.1831055
1024,-11.8125,-11.75,-19.8125,0.2978516,0.6206055,0.8852539,0.230957,-0.5986328,-0.1831055
1025,-16.75,-11.875,-19.375,0.2783203,0.5664063,0.9365234,0.230957,-0.5913086,-0.1806641
1026,-20.5625,-12.1875,-18.3125,0.2739258,0.5776367,0.9604492,0.230957,-0.5913086,-0.1806641
1027,-24.625,-12.9375,-17.5,0.2421875,0.5546875,1.031738,0.2231445,-0.59375,-0.1992188
1028,-29.75,-14.0625,-16.25,0.2143555,0.6049805,1.003906,0.2255859,-0.5913086,-0.1914063
1029,-34.625,-15.875,-15.0625,0.2026367,0.6049805,1.015625,0.2255859,-0.5913086,-0.1914063
1030,-39.6875,-18.5,-13.6875,0.1748047,0.597168,1.05127,0.2202148,-0.5913086,-0.1914063
1031,-43.5,-21.75,-12.5625,0.1586914,0.5429688,1.063477,0.2363281,-0.5756836,-0.1962891
1032,-45.875,-25.3125,-12.1875,0.1230469,0.512207,1.055176,0.2363281,-0.5756836,-0.1962891
1033,-45.25,-28.9375,-12.3125,0.1191406,0.496582,1.075195,0.2255859,-0.5732422,-0.2045898
1034,-41,-32.25,-13.125,0.1108398,0.4501953,1.039551,0.2255859,-0.5732422,-0.2045898
1035,-32.5625,-34.9375,-14.5,0.1230469,0.4116211,1.047363,0.2177734,-0.5756836,-0.2045898
1036,-21.9375,-36.5625,-16.125,0.1230469,0.3847656,1.019531,0.2148438,-0.5756836,-0.2124023
1037,-11.5,-37.375,-18.3125,0.1269531,0.3886719,1.003906,0.2148438,-0.5756836,-0.2124023
1038,-1.5625,-37.6875,-20.5625,0.1230469,0.3999023,0.9804688,0.2094727,-0.5786133,-0.2070313
1039,6.125,-37.5,-22.1875,0.1787109,0.4155273,0.9287109,0.2094727,-0.5786133,-0.2070313
1040,13.25,-36.375,-23.5625,0.1787109,0.3730469,0.9487305,0.2124023,-0.5732422,-0.2094727
1041,21.0625,-34.6875,-25,0.1943359,0.3925781,0.9052734,0.2041016,-0.5654297,-0.2177734
1042,29.75,-32.9375,-26.625,0.2504883,0.3999023,0.9091797,0.2041016,-0.5654297,-0.2177734
1043,39.5625,-31.3125,-29.25,0.2583008,0.3886719,0.9013672,0.2070313,-0.5683594,-0.2070313
1044,48.9375,-29.9375,-32.375,0.3256836,0.3886719,0.8774414,0.2016602,-0.5756836,-0.1992188
1045,58.5625,-28.4375,-35.625,0.3535156,0.3999023,0.8100586,0.2016602,-0.5756836,-0.1992188
1046,65.75,-26.5,-38.1875,0.3818359,0.4853516,0.8417969,0.2070313,-0.5732422,-0.2070313
1047,70.375,-24.1875,-40.5,0.425293,0.4887695,0.7827148,0.2070313,-0.5732422,-0.2070313
1048,71.875,-21.8125,-41.8125,0.4135742,0.5546875,0.8300781,0.2041016,-0.5888672,-0.2094727
1049,69.375,-18.25,-42,0.465332,0.581543,0.7905273,0.2094727,-0.59375,-0.1884766
1050,63.5625,-13.375,-41.625,0.4492188,0.6279297,0.7587891,0.2094727,-0.59375,-0.1884766
1051,54.125,-7.4375,-40.375,0.4492188,0.6318359,0.8061523,0.2016602,-0.5961914,-0.1938477
1052,41.8125,-1,-38,0.4213867,0.6977539,0.7709961,0.2016602,-0.5961914,-0.1938477
1053,27.4375,5.9375,-35.6875,0.4174805,0.6860352,0.8535156,0.2041016,-0.5986328,-0.1914063
1054,12.1875,12.9375,-32.9375,0.3935547,0.7246094,0.8891602,0.2070313,-0.6118164,-0.1860352
1055,-3.3125,18.375,-29.875,0.3535156,0.7592773,0.9604492,0.2070313,-0.6118164,-0.1860352
1056,-18.8125,21.8125,-26.8125,0.2822266,0.7670898,1.098633,0.2041016,-0.5986328,-0.1914063
1057,-34.5,23.0625,-23.6875,0.1904297,0.7905273,1.138184,0.2148438,-0.6064453,-0.1962891
1058,-50.0625,21.875,-20.875,0.1386719,0.7866211,1.158203,0.2148438,-0.6064453,-0.1962891
1059,-63.375,19.125,-18.3125,0.1147461,0.7441406,1.249023,0.2231445,-0.5986328,-0.1884766
1060,-73.125,16.1875,-15.3125,0.08691406,0.6938477,1.193848,0.2231445,-0.5986328,-0.1884766
1061,-79.25,12.9375,-12.625,0.07128906,0.612793,1.193848,0.2177734,-0.5913086,-0.1938477
1062,-81.1875,9.75,-10.75,0.0234375,0.5664063,1.162109,0.2202148,-0.5888672,-0.1938477
1063,-78,6.3125,-9.4375,0.01123047,0.5043945,1.181641,0.2202148,-0.5888672,-0.1938477
1064,-70.125,3.125,-8.8125,0.01123047,0.4501953,1.122559,0.2231445,-0.5786133,-0.2016602
1065,-57.75,0,-9.0625,-0.0078125,0.3847656,1.094727,0.2231445,-0.5786133,-0.2016602
1066,-41.75,-2.8125,-9.25,-0.02392578,0.3344727,1.102539,0.2285156,-0.5605469,-0.2070313
1067,-24.5,-5.75,-9.9375,-0.02392578,0.3076172,1.098633,0.230957,-0.5581055,-0.2016602
1068,-9.6875,-7.375,-11.3125,-0.0078125,0.2880859,1.114746,0.230957,-0.5581055,-0.2016602
1069,-0.0625,-9,-12.9375,0.003417969,0.3110352,1.079102,0.2148438,-0.5605469,-0.2070313
1070,3.25,-10.25,-15.125,0.05126953,0.3188477,1.122559,0.2124023,-0.5581055,-0.2177734
1071,1.9375,-11.6875,-17.5625,0.03125,0.3500977,1.098633,0.2124023,-0.5581055,-0.2177734
1072,-1.4375,-13.75,-19.8125,0.04345703,0.3574219,1.09082,0.230957,-0.5527344,-0.2124023
1073,-6,-14.75,-22,0.04345703,0.3344727,1.075195,0.230957,-0.5527344,-0.2124023
1074,-10.25,-16.1875,-24,0.05517578,0.3227539,1.059082,0.2202148,-0.5527344,-0.1992188
1075,-14.8125,-16.8125,-25.875,0.05517578,0.3076172,1.007813,0.2177734,-0.5527344,-0.2148438
1076,-19.4375,-16.5,-28.3125,0.0234375,0.3076172,0.9682617,0.2177734,-0.5527344,-0.2148438
1077,-23.4375,-16.6875,-30.6875,0.06738281,0.2880859,0.9643555,0.2148438,-0.5629883,-0.2094727
1078,-26.9375,-16.8125,-33.4375,0.03955078,0.2998047,1,0.2148438,-0.5629883,-0.2094727
1079,-28.0625,-17.3125,-36.75,0,0.2685547,1.011719,0.2148438,-0.5629883,-0.2094727
1080,-26.4375,-18.3125,-40.125,0.01123047,0.2612305,1.039551,0.230957,-0.5478516,-0.2070313
1081,-23.8125,-18.625,-43.6875,0.007324219,0.2958984,1.011719,0.230957,-0.5478516,-0.2070313
1082,-22.3125,-18.625,-47.3125,0,0.2724609,1.019531,0.230957,-0.5478516,-0.2070313
1083,-23.0625,-18.75,-51.375,-0.01171875,0.3076172,1.059082,0.2255859,-0.5375977,-0.2148438
1084,-26.375,-18.25,-55.3125,-0.00390625,0.3613281,1.031738,0.2255859,-0.5375977,-0.2148438
1085,-31.1875,-18.1875,-58.875,-0.05566406,0.3925781,1.055176,0.2255859,-0.5375977,-0.2148438
1086,-35.5625,-18.8125,-61.375,-0.07177734,0.4194336,1.094727,0.2255859,-0.5375977,-0.2148438
1087,-38,-19.5,-63.6875,-0.04785156,0.3886719,1.106934,0.2285156,-0.5322266,-0.2226563
1089,-39.625,-19.6875,-65.6875,-0.05566406,0.4272461,1.154297,0.2285156,-0.5322266,-0.2226563
1090,-40.8125,-19.8125,-68.5,-0.07568359,0.3305664,1.14209,0.2285156,-0.5322266,-0.2226563
1091,-40.5,-19.625,-70.875,-0.02001953,0.3305664,1.158203,0.2177734,-0.5249023,-0.2255859
1092,-40.375,-19.625,-73.625,-0.04394531,0.3037109,1.134277,0.2177734,-0.5249023,-0.2255859
1093,-38.75,-19.625,-76.4375,-0.03173828,0.3076172,1.177734,0.2177734,-0.5249023,-0.2255859
1094,-35.25,-20.0625,-79,-0.01611328,0.3110352,1.154297,0.2338867,-0.5014648,-0.230957
1095,-32,-20.5625,-81.625,0,0.3076172,1.14209,0.2338867,-0.5014648,-0.230957
1096,-26.125,-21.375,-84.3125,0.03125,0.253418,1.14209,0.2338867,-0.5014648,-0.230957
1097,-19.625,-21.5,-87.875,0.05126953,0.2573242,1.169922,0.2363281,-0.5068359,-0.2255859
1098,-11.9375,-22,-91,0.08691406,0.2998047,1.130371,0.2363281,-0.5068359,-0.2255859
1099,-7.375,-22.1875,-94.8125,0.1069336,0.3305664,1.134277,0.2255859,-0.5068359,-0.2255859
1100,-4.8125,-22.5,-99.1875,0.1547852,0.3574219,1.106934,0.2255859,-0.5068359,-0.2255859
1101,-5.3125,-21.9375,-103.5625,0.1665039,0.3691406,1.09082,0.2255859,-0.4941406,-0.2333984
1102,-9.625,-20.8125,-107.3125,0.1508789,0.3886719,1.067383,0.2416992,-0.5014648,-0.2333984
1103,-16.6875,-20.1875,-111.25,0.1547852,0.4658203,1.094727,0.2416992,-0.5014648,-0.2333984
1104,-25.375,-20.3125,-113.5,0.1069336,0.4697266,1.071289,0.230957,-0.4838867,-0.230957
1105,-35.375,-20.0625,-115.125,0.08300781,0.4736328,1.11084,0.2338867,-0.4785156,-0.230957
1106,-44,-20.8125,-116.625,0.06738281,0.4926758,1.162109,0.2338867,-0.4785156,-0.230957
1107,-46.9375,-22.1875,-117.0625,0.01953125,0.4775391,1.20166,0.2338867,-0.4736328,-0.246582
1108,-46.875,-24.5,-116.1875,-0.03173828,0.4541016,1.221191,0.2338867,-0.4736328,-0.246582
1109,-44.625,-27.8125,-116.5,-0.04394531,0.4233398,1.209473,0.2441406,-0.4682617,-0.2358398
1110,-40.5625,-31.4375,-116.5625,-0.07177734,0.3925781,1.249023,0.2416992,-0.4658203,-0.2412109
1111,-35.0625,-34.9375,-116.75,-0.08740234,0.3500977,1.209473,0.2416992,-0.4658203,-0.2412109
1112,-28.4375,-37.25,-116.5,-0.1074219,0.3500977,1.205566,0.2285156,-0.4453125,-0.246582
1113,-21.875,-39.625,-116.1875,-0.1552734,0.3574219,1.158203,0.2285156,-0.4453125,-0.246582
1114,-17.25,-41.8125,-115.375,-0.1713867,0.3540039,1.079102,0.2441406,-0.4350586,-0.2519531
1115,-16.25,-43.4375,-114.8125,-0.203125,0.4155273,1.09082,0.230957,-0.4428711,-0.2412109
1116,-19.5,-45.5,-114.75,-0.2348633,0.4428711,1.09082,0.230957,-0.4428711,-0.2412109
1117,-26,-48,-114.625,-0.2705078,0.4619141,1.079102,0.2285156,-0.4428711,-0.2412109
1118,-35.25,-49.9375,-115.125,-0.2827148,0.4887695,1.083008,0.2285156,-0.4375,-0.2387695
1119,-44.25,-52,-116,-0.3066406,0.4775391,1.083008,0.2285156,-0.4375,-0.2387695
1120,-50.8125,-54.5,-116.375,-0.3144531,0.4541016,1.083008,0.2148438,-0.4272461,-0.2412109
1121,-53.375,-57.3125,-116.8125,-0.3222656,0.3540039,1.079102,0.2148438,-0.4272461,-0.2412109
1122,-52.3125,-60.125,-117.8125,-0.3344727,0.3422852,1.023926,0.2177734,-0.4121094,-0.2568359
1123,-46.125,-62.8125,-118.4375,-0.3066406,0.3037109,1.031738,0.2148438,-0.409668,-0.2543945
1124,-36.6875,-65.1875,-119.5,-0.2905273,0.2880859,1.023926,0.2148438,-0.409668,-0.2543945
1125,-26.5,-67.0625,-120.375,-0.3144531,0.222168,1.003906,0.2094727,-0.3969727,-0.2568359
1126,-17.0625,-68.6875,-121.625,-0.3305664,0.2299805,0.9487305,0.2094727,-0.3969727,-0.2568359
1127,-10.25,-70.5,-123.4375,-0.2744141,0.2573242,0.9682617,0.2041016,-0.394043,-0.2543945
1128,-6.9375,-72.1875,-125.1875,-0.2509766,0.2919922,0.972168,0.190918,-0.3891602,-0.2490234
1129,-6.5625,-73.625,-127.125,-0.246582,0.3227539,0.9487305,0.190918,-0.3891602,-0.2490234
1130,-9.5,-74.6875,-129.25,-0.2426758,0.3383789,0.9643555,0.1884766,-0.394043,-0.2519531
1131,-13.5,-75.5,-131.5,-0.2109375,0.3305664,0.9960938,0.1694336,-0.3891602,-0.2543945
1132,-19.4375,-76.375,-133.9375,-0.2226563,0.3613281,0.9604492,0.1694336,-0.3891602,-0.2543945
1133,-26.375,-76.8125,-136.3125,-0.2348633,0.3574219,0.9287109,0.1640625,-0.3789063,-0.262207
1134,-32.875,-75.875,-138.9375,-0.2348633,0.3613281,0.9643555,0.1640625,-0.3789063,-0.262207
1135,-37.0625,-74.125,-140.625,-0.21875,0.3730469,0.9526367,0.1640625,-0.3735352,-0.2597656
1136,-40.3125,-70.0625,-140.625,-0.2070313,0.3110352,1,0.1616211,-0.3764648,-0.2597656
1137,-43,-65.4375,-138.6875,-0.2509766,0.3500977,0.9604492,0.1616211,-0.3764648,-0.2597656
1138,-45.25,-60.875,-137.3125,-0.2509766,0.3188477,1.015625,0.1455078,-0.3608398,-0.2543945
1139,-45.5,-58.5625,-137.25,-0.2548828,0.3188477,0.9960938,0.1455078,-0.3608398,-0.2543945
1140,-43.5,-57.6875,-138.125,-0.2270508,0.2573242,1.031738,0.1455078,-0.3662109,-0.2651367
1141,-38.9375,-57.125,-139.6875,-0.1791992,0.222168,1.09082,0.1401367,-0.3686523,-0.2651367
1142,-35.25,-55.5625,-140.9375,-0.1552734,0.2724609,1.083008,0.1401367,-0.3686523,-0.2651367
1143,-32.6875,-53.8125,-142.9375,-0.1391602,0.2958984,1.039551,0.1323242,-0.3530273,-0.2543945
1144,-32.25,-51.625,-144.125,-0.1352539,0.3149414,1.035645,0.121582,-0.3505859,-0.262207
1145,-33.5625,-49.5,-145.875,-0.09570313,0.3500977,1.015625,0.121582,-0.3505859,-0.262207
1146,-36.5625,-47.375,-146.1875,-0.07177734,0.3652344,1.067383,0.121582,-0.3457031,-0.2597656
1147,-40.25,-45.3125,-145.125,-0.05175781,0.3500977,1.039551,0.121582,-0.3457031,-0.2597656
1148,-44.3125,-42.75,-142.625,-0.00390625,0.3613281,1.067383,0.1132813,-0.3330078,-0.2519531
1149,-48.5,-40.8125,-139.75,0.01953125,0.3305664,1.031738,0.1054688,-0.3300781,-0.2543945
1150,-51.125,-38.6875,-137.5,0.0234375,0.2802734,1.027832,0.1054688,-0.3300781,-0.2543945
1151,-49.9375,-36.375,-135.3125,0.07128906,0.2958984,1.039551,0.1054688,-0.3198242,-0.2597656
1152,-45.9375,-34.1875,-132.25,0.09521484,0.3110352,1.071289,0.1054688,-0.3198242,-0.2597656
1154,-37.8125,-30.9375,-128.5625,0.1508789,0.2958984,1.102539,0.1030273,-0.3251953,-0.2651367
1155,-29.4375,-27.875,-125.4375,0.2026367,0.3227539,1.106934,0.08691406,-0.3198242,-0.2519531
1156,-23.75,-24.5625,-124,0.2104492,0.3925781,1.138184,0.08691406,-0.3198242,-0.2519531
1157,-22.25,-21.3125,-124.1875,0.1865234,0.4853516,1.169922,0.08691406,-0.3149414,-0.2568359
1158,-27.3125,-18.6875,-125.5,0.2104492,0.5776367,1.209473,0.07617188,-0.3149414,-0.2597656
1159,-38.875,-17,-127.1875,0.1508789,0.7207031,1.256836,0.07617188,-0.3149414,-0.2597656
1160,-55.625,-16.3125,-128.25,0.1347656,0.7402344,1.268555,0.07861328,-0.3095703,-0.2543945
1161,-74.4375,-16.5625,-128.25,0.1230469,0.7709961,1.264648,0.07861328,-0.3095703,-0.2543945
1162,-89.25,-17,-126.6875,0.1108398,0.7827148,1.264648,0.08935547,-0.3071289,-0.2519531
1163,-98.8125,-17.3125,-123.375,0.1386719,0.7363281,1.308105,0.08154297,-0.296875,-0.2490234
1164,-101.625,-17.25,-119.75,0.1586914,0.6591797,1.280762,0.08154297,-0.296875,-0.2490234
1165,-98.9375,-16.4375,-116.375,0.1586914,0.6318359,1.272949,0.07861328,-0.2841797,-0.2436523
1166,-90.75,-15.5625,-113.3125,0.1865234,0.5390625,1.264648,0.07861328,-0.2841797,-0.2436523
1167,-79.75,-14.4375,-110.5,0.1625977,0.496582,1.256836,0.07324219,-0.2841797,-0.246582
1168,-67.625,-12.25,-108,0.1665039,0.4697266,1.225098,0.06542969,-0.2792969,-0.2597656
1169,-56.9375,-10.0625,-106.0625,0.1904297,0.4775391,1.256836,0.06542969,-0.2792969,-0.2597656
1170,-50.0625,-7.375,-104.5625,0.1987305,0.5429688,1.256836,0.05761719,-0.2612305,-0.2358398
1171,-45.875,-5.375,-103.75,0.2143555,0.5161133,1.260742,0.07324219,-0.2509766,-0.2436523
1172,-44.1875,-3.4375,-103.3125,0.2265625,0.546875,1.264648,0.07324219,-0.2509766,-0.2436523
1173,-43.125,-1.6875,-103.0625,0.206543,0.4926758,1.264648,0.06542969,-0.253418,-0.2519531
1174,-42.875,0,-102.625,0.222168,0.5083008,1.233398,0.06542969,-0.253418,-0.2519531
1175,-43.125,1.6875,-101.6875,0.2265625,0.496582,1.205566,0.06298828,-0.2509766,-0.2412109
1176,-44.1875,3.125,-100.8125,0.234375,0.4814453,1.185547,0.05761719,-0.2382813,-0.2543945
1177,-45.0625,3.8125,-101,0.2143555,0.4350586,1.14209,0.05761719,-0.2382813,-0.2543945
1178,-44.6875,3.875,-101.3125,0.1904297,0.3999023,1.079102,0.06835938,-0.253418,-0.2490234
1179,-42.125,4.3125,-102.5,0.2143555,0.3652344,1.098633,0.06835938,-0.253418,-0.2490234
1180,-37.1875,4.375,-104.4375,0.2104492,0.3344727,1.043457,0.05224609,-0.2431641,-0.2519531
1181,-31,4.25,-107.3125,0.1943359,0.3188477,1.035645,0.05224609,-0.2431641,-0.246582
1182,-24.875,3.1875,-111.4375,0.1748047,0.3149414,1.043457,0.05224609,-0.2431641,-0.246582
1183,-18.8125,1,-116.4375,0.1586914,0.3149414,1.027832,0.04931641,-0.2353516,-0.2490234
1184,-13.125,-1.875,-121.75,0.1469727,0.3500977,1.023926,0.046875,-0.253418,-0.2568359
1185,-8.125,-5.3125,-126.875,0.1269531,0.3540039,1,0.046875,-0.253418,-0.2568359
1186,-2.8125,-9.6875,-132.0625,0.2026367,0.3769531,1,0.05224609,-0.2353516,-0.2387695
1187,2.3125,-14.4375,-136.5,0.1425781,0.3808594,0.9960938,0.05224609,-0.2353516,-0.2387695
1188,7.5,-19.8125,-140.75,0.1547852,0.3808594,0.984375,0.03613281,-0.2485352,-0.246582
1189,11.625,-25.6875,-144.0625,0.1147461,0.3730469,0.984375,0.03320313,-0.2485352,-0.2387695
1190,14.9375,-32.25,-146.625,0.1069336,0.3925781,0.9643555,0.03320313,-0.2485352,-0.2387695
1191,16.75,-39.1875,-148.25,0.1069336,0.4233398,0.9487305,0.03320313,-0.253418,-0.246582
1192,17.875,-46.3125,-148.8125,0.1191406,0.3769531,0.9169922,0.03320313,-0.253418,-0.246582
1193,18.6875,-53.5,-148.625,0.1347656,0.3305664,0.8100586,0.01757813,-0.2558594,-0.2333984
1194,19.5625,-60.375,-148,0.1508789,0.3037109,0.8222656,0.01220703,-0.2558594,-0.2436523
1195,21.4375,-66.625,-147.375,0.1269531,0.2299805,0.7709961,0.01220703,-0.2558594,-0.2436523
1196,25.0625,-72.0625,-146.5625,0.1665039,0.2299805,0.7314453,-0.003417969,-0.269043,-0.246582
1197,29.9375,-75.875,-146.375,0.1748047,0.1992188,0.7231445,-0.008789063,-0.2841797,-0.2333984
1198,36,-78.3125,-145.9375,0.2143555,0.152832,0.699707,-0.008789063,-0.2841797,-0.2333984
1199,42.375,-78.875,-146.25,0.2421875,0.1762695,0.6918945,-0.01953125,-0.2763672,-0.230957
1200,48.375,-78.875,-146.9375,0.2421875,0.203125,0.6835938,-0.01953125,-0.2763672,-0.230957
1201,54.5,-78.3125,-147.9375,0.262207,0.1914063,0.699707,-0.03564453,-0.2919922,-0.2412109
1202,60.375,-78,-149.0625,0.2861328,0.2456055,0.7192383,-0.03027344,-0.3071289,-0.2255859
1203,63.25,-77.9375,-149.875,0.2939453,0.2299805,0.7548828,-0.03027344,-0.3071289,-0.2255859
1204,64.9375,-78.125,-150.75,0.2661133,0.2802734,0.8100586,-0.06494141,-0.3198242,-0.2333984
1205,63.125,-77.875,-150.4375,0.2739258,0.3383789,0.8696289,-0.06494141,-0.3198242,-0.2333984
1206,57.8125,-78.1875,-149.9375,0.2900391,0.3999023,0.8696289,-0.05175781,-0.340332,-0.2255859
1207,53.375,-78.625,-150.125,0.2661133,0.4350586,0.8974609,-0.06738281,-0.3457031,-0.2177734
1208,46.1875,-78,-149.1875,0.3017578,0.4619141,0.8852539,-0.06738281,-0.3457031,-0.2177734
1209,38.5,-75.9375,-147.875,0.3017578,0.5004883,0.9013672,-0.08105469,-0.3662109,-0.2255859
1210,26.25,-72,-145.875,0.3100586,0.5585938,0.9208984,-0.09179688,-0.3764648,-0.2094727
1211,13.875,-69.25,-143.125,0.262207,0.5854492,1,-0.09179688,-0.3764648,-0.2094727
1212,0.0625,-66.25,-140.8125,0.2304688,0.5546875,0.956543,-0.09179688,-0.3764648,-0.2094727
1213,-15.25,-62.125,-137.9375,0.2421875,0.5585938,0.9804688,-0.09179688,-0.3764648,-0.2094727
1214,-29.25,-56.375,-133.75,0.222168,0.527832,0.956543,-0.09960938,-0.3916016,-0.2148438
1215,-41,-50.0625,-130.4375,0.2182617,0.5351563,0.940918,-0.09960938,-0.3916016,-0.2148438
1216,-49.375,-43.75,-127.9375,0.206543,0.4619141,0.9487305,-0.09960938,-0.3916016,-0.2148438
1217,-51.25,-36.375,-126.25,0.1904297,0.4501953,1.019531,-0.09667969,-0.3891602,-0.1992188
1219,-45.625,-28.5,-123.4375,0.1787109,0.4194336,1.027832,-0.09667969,-0.3891602,-0.1992188
1220,-34.625,-20.375,-119.9375,0.1904297,0.3422852,1.079102,-0.09667969,-0.3891602,-0.1992188
1221,-20.0625,-12.5,-116.1875,0.1665039,0.3613281,1.114746,-0.1157227,-0.3916016,-0.2045898
1222,-4.75,-4.875,-112.4375,0.1547852,0.3691406,1.134277,-0.1157227,-0.3916016,-0.2045898
1223,8.1875,2.875,-108.8125,0.1308594,0.4350586,1.146484,-0.1157227,-0.3916016,-0.2045898
1224,22,9.3125,-106.375,0.1108398,0.4428711,1.122559,-0.1074219,-0.3994141,-0.1962891
1225,34.625,15.8125,-104.375,0.1108398,0.4775391,1.146484,-0.1074219,-0.3994141,-0.1962891
1226,46.6875,22.875,-103.75,0.1308594,0.4462891,1.122559,-0.1074219,-0.3994141,-0.1962891
1227,62,29.6875,-104.625,0.1108398,0.4926758,1.138184,-0.1074219,-0.3994141,-0.1962891
1228,78.5,35.875,-106.4375,0.09082031,0.496582,1.154297,-0.1074219,-0.4199219,-0.2148438
1229,96,40.875,-108,0.06738281,0.527832,1.11084,-0.1074219,-0.4199219,-0.2148438
1230,113.875,46.3125,-108.375,0.07128906,0.581543,1.11084,-0.1074219,-0.4199219,-0.2148438
1231,126.8125,50.5,-107.8125,0.04736328,0.6665039,1.09082,-0.08349609,-0.453125,-0.2124023
1232,133.375,53.3125,-104.0625,0.03515625,0.7441406,1.059082,-0.08349609,-0.453125,-0.2124023
1233,137.125,55,-99.6875,-0.00390625,0.8330078,1.019531,-0.08349609,-0.453125,-0.2124023
1234,137.5625,56.5,-102.25,0.04345703,0.8754883,0.8496094,-0.0703125,-0.4941406,-0.2045898
1235,134.625,58.0625,-93.375,0.007324219,0.6977539,0.9169922,-0.0703125,-0.4941406,-0.2045898
1236,147.9375,61.0625,-89.625,0,0.7983398,0.8735352,-0.06201172,-0.5146484,-0.1914063
1237,144.5,60.5625,-84.5625,0.007324219,0.7480469,0.9013672,-0.05664063,-0.5322266,-0.1860352
1238,149.8125,63.3125,-80.75,0.0234375,0.7055664,0.8579102,-0.05664063,-0.5322266,-0.1860352
1239,155,65.25,-78.8125,0.03125,0.6435547,0.8339844,-0.04638672,-0.550293,-0.1914063
1240,167,66.8125,-78.0625,0.01953125,0.5664063,0.8657227,-0.04638672,-0.550293,-0.1914063
1241,182.0625,68.5,-79.5625,0.003417969,0.4926758,0.8300781,-0.03027344,-0.5654297,-0.1782227
1242,203.75,69.875,-82.875,-0.01611328,0.3964844,0.8261719,-0.01660156,-0.5859375,-0.1674805
1243,226.25,71.5,-86.5,-0.03564453,0.3266602,0.7431641,-0.01660156,-0.5859375,-0.1674805
1244,245,71.625,-88.8125,-0.05957031,0.3110352,0.7270508,-0.01171875,-0.6088867,-0.1572266
1245,268.25,72.125,-89.1875,-0.07177734,0.2958984,0.644043,0.01220703,-0.6425781,-0.1489258
1246,292.4375,74.8125,-89.9375,-0.09570313,0.3847656,0.5532227,0.01220703,-0.6425781,-0.1489258
1247,300.0625,74.9375,-90.0625,-0.1152344,0.4926758,0.5175781,0.02783203,-0.6679688,-0.1357422
1248,305.4375,74.9375,-89.3125,-0.1074219,0.6357422,0.4428711,0.02783203,-0.6679688,-0.1357422
1249,300.375,74.0625,-88.375,-0.1474609,0.7553711,0.4467773,0.02294922,-0.6860352,-0.1123047
1250,289.1875,72.625,-88,-0.1791992,0.7905273,0.3515625,0.03857422,-0.7192383,-0.09130859
1251,271.3125,70.875,-83.3125,-0.1713867,0.8598633,0.3125,0.03857422,-0.7192383,-0.09130859
1252,254.25,69.125,-79.625,-0.1552734,0.8520508,0.3242188,0.046875,-0.7470703,-0.05957031
1253,233.0625,66.8125,-75.5625,-0.1713867,0.8637695,0.300293,0.046875,-0.7470703,-0.05957031
1254,213.25,64.3125,-70.9375,-0.1791992,0.8945313,0.3359375,0.07617188,-0.7573242,-0.04931641
1255,199.375,60.3125,-67.0625,-0.1948242,0.855957,0.3833008,0.08398438,-0.7729492,-0.02001953
1256,184.1875,56.25,-65,-0.1948242,0.7983398,0.4267578,0.08398438,-0.7729492,-0.02001953
1257,171,48.9375,-62.875,-0.1870117,0.7094727,0.5019531,0.07617188,-0.7832031,-0.009765625
1258,168.8125,43.3125,-61.25,-0.2387695,0.6010742,0.5375977,0.08935547,-0.7905273,0.01611328
1259,174.75,37.875,-56.9375,-0.2866211,0.6279297,0.6005859,0.08935547,-0.7905273,0.01611328
1260,183,30.5,-50.875,-0.2827148,0.7055664,0.5610352,0.1000977,-0.8007813,0.02685547
1261,185.1875,22.5,-44.0625,-0.3105469,0.7983398,0.5097656,0.1000977,-0.8007813,0.02685547
1262,189.9375,16.8125,-38.5625,-0.3027344,0.9101563,0.4345703,0.121582,-0.8212891,0.05810547
1263,167.375,6.0625,-33.9375,-0.3105469,0.972168,0.5058594,0.1162109,-0.831543,0.06884766
1264,163.25,-0.125,-30.4375,-0.2827148,0.956543,0.4467773,0.1162109,-0.831543,0.06884766
1265,162.4375,-4.6875,-26.1875,-0.2270508,0.8984375,0.4467773,0.1186523,-0.831543,0.08740234
1266,168.4375,-8.625,-20.25,-0.21875,0.8598633,0.4506836,0.1186523,-0.831543,0.08740234
1267,174.625,-9.1875,-15,-0.203125,0.9296875,0.3793945,0.1108398,-0.8393555,0.09765625
1268,182.875,-9.8125,-12.6875,-0.1235352,0.9487305,0.3203125,0.1108398,-0.8291016,0.1293945
1269,185.5625,-8.75,-6.125,-0.08740234,1.037598,0.2768555,0.1108398,-0.8291016,0.1293945
1270,184.3125,-5.1875,4.0625,-0.09130859,1.165039,0.2055664,0.121582,-0.8393555,0.1503906
1271,168.5,-6.5,14,-0.1113281,1.308105,0.1855469,0.1186523,-0.8442383,0.1557617
1272,140.25,-7.3125,22.0625,-0.1152344,1.366211,0.284668,0.1186523,-0.8442383,0.1557617
1273,106.9375,-3.75,29.5,-0.05175781,1.489746,0.07910156,0.1083984,-0.8496094,0.1791992
1274,63.3125,-9.75,36.125,-0.1630859,1.598145,0.3203125,0.1083984,-0.8496094,0.1791992
1275,-7.8125,-12.125,32.4375,-0.2905273,1.470215,0.2568359,0.1162109,-0.8442383,0.1977539
1276,-61.3125,-18.875,26.375,-0.2827148,1.246094,0.3833008,0.1132813,-0.8496094,0.1977539
1277,-120.6875,-23.0625,22.375,-0.3183594,1.091797,0.4306641,0.1132813,-0.8496094,0.1977539
1278,-141.875,-26.125,19.25,-0.2270508,0.9296875,0.5258789,0.09765625,-0.8544922,0.1767578
1279,-149.6875,-26.25,13.875,-0.2587891,0.7324219,0.4624023,0.09765625,-0.8544922,0.1767578
1280,-134.875,-25.125,8.875,-0.3105469,0.6435547,0.5136719,0.1030273,-0.847168,0.1635742
1281,-105.5,-21.125,5.3125,-0.3583984,0.5317383,0.4980469,0.1000977,-0.8496094,0.1503906
1282,-66.6875,-17.5,-1.875,-0.4140625,0.3730469,0.5219727,0.1000977,-0.8496094,0.1503906
1284,-17.375,-13.6875,-6.25,-0.3779297,0.3652344,0.4467773,0.08935547,-0.8417969,0.137207
1285,44.4375,-10.0625,-4.9375,-0.2944336,0.4814453,0.34375,0.1000977,-0.8393555,0.1318359
1286,90.6875,-4.0625,-6.125,-0.1791992,0.7055664,0.1582031,0.1000977,-0.8393555,0.1318359
1287,108.5625,0.125,-9.875,-0.175293,0.9257813,0.1381836,0.1030273,-0.8344727,0.1503906
1288,118.5625,2.25,-12.375,-0.2548828,1.118652,0.08300781,0.1030273,-0.8344727,0.1503906
1289,114.125,1.0625,-15.0625,-0.2788086,1.300293,0.015625,0.1054688,-0.8496094,0.1557617
1290,96,-0.1875,-18.1875,-0.3183594,1.470215,-0.03515625,0.09228516,-0.8544922,0.1767578
1291,66.4375,-6.875,-21.4375,-0.2983398,1.524414,-0.03515625,0.09228516,-0.8544922,0.1767578
1292,29.1875,-12.9375,-26.625,-0.3222656,1.497559,0.05126953,0.1054688,-0.8496094,0.1821289
1293,-8.125,-21.4375,-32.375,-0.3623047,1.334961,0.1621094,0.1054688,-0.8496094,0.1821289
1294,-32.6875,-29.75,-37.4375,-0.4140625,1.134277,0.2211914,0.1054688,-0.8544922,0.1875
1295,-45.9375,-36.3125,-41.625,-0.394043,1.00293,0.1977539,0.1132813,-0.8442383,0.1845703
1296,-48.3125,-40.4375,-46,-0.421875,0.921875,0.2294922,0.1132813,-0.8442383,0.1845703
1297,-45.6875,-42.875,-47.8125,-0.4775391,0.8330078,0.1503906,0.1186523,-0.847168,0.1791992
1298,-40.1875,-43.0625,-48.9375,-0.5415039,0.8408203,0.07519531,0.1240234,-0.8393555,0.1713867
1299,-33,-43.75,-50.4375,-0.5454102,0.7905273,0.07519531,0.1240234,-0.8393555,0.1713867
1300,-26.25,-44.8125,-53.1875,-0.5571289,0.7167969,0.05908203,0.1323242,-0.8574219,0.1660156
1301,-20.625,-46.5625,-55.3125,-0.5571289,0.7592773,0.09863281,0.1323242,-0.8574219,0.1660156
1302,-22.1875,-48.4375,-58.125,-0.5014648,0.7944336,0.1420898,0.1269531,-0.8544922,0.1660156
1303,-29.6875,-50.8125,-62.375,-0.5175781,0.8212891,0.1225586,0.1323242,-0.8496094,0.1582031
1304,-38.8125,-53.3125,-67.25,-0.5053711,0.8291016,0.1381836,0.1323242,-0.8496094,0.1582031
1305,-45.4375,-54.6875,-72.6875,-0.5253906,0.7128906,0.1699219,0.1455078,-0.8417969,0.152832
1306,-48.8125,-55.0625,-78.875,-0.5214844,0.6279297,0.1464844,0.1455078,-0.8417969,0.152832
1307,-51.5625,-54.9375,-84.5625,-0.5053711,0.5664063,0.1621094,0.1455078,-0.8369141,0.1503906
1308,-53.3125,-54.625,-90.5,-0.5014648,0.5351563,0.1855469,0.1669922,-0.8344727,0.1503906
1309,-56.0625,-54.3125,-96.1875,-0.4936523,0.5317383,0.2451172,0.1669922,-0.8344727,0.1503906
1310,-59.0625,-53.75,-102.5625,-0.4697266,0.4462891,0.2250977,0.1777344,-0.8266602,0.1318359
1311,-62.75,-53.5,-109.3125,-0.4697266,0.4501953,0.2211914,0.1855469,-0.8393555,0.1401367
1312,-66.6875,-52.6875,-116.375,-0.449707,0.4155273,0.2529297,0.1855469,-0.8393555,0.1401367
1313,-69.875,-52.3125,-124.6875,-0.4179688,0.4116211,0.2963867,0.1962891,-0.8291016,0.121582
1314,-68.125,-51.625,-134,-0.4418945,0.3769531,0.2924805,0.1962891,-0.8291016,0.121582
1315,-60.625,-51.0625,-143.9375,-0.3979492,0.3305664,0.2768555,0.2041016,-0.8266602,0.1137695
1316,-47.5,-50.875,-153.5,-0.3540039,0.2802734,0.3637695,0.230957,-0.8188477,0.1054688
1317,-31.9375,-50.0625,-161.75,-0.3623047,0.2880859,0.2885742,0.230957,-0.8188477,0.1054688
1318,-19.4375,-49.5,-168.75,-0.3383789,0.3149414,0.2729492,0.2363281,-0.8164063,0.1054688
1319,-9,-48.8125,-173.875,-0.3662109,0.4194336,0.3041992,0.2363281,-0.8164063,0.1054688
1320,-3.75,-46.875,-177.5625,-0.3740234,0.4501953,0.3081055,0.2578125,-0.8266602,0.1054688
1321,-5.125,-44.875,-181.4375,-0.3583984,0.512207,0.300293,0.2685547,-0.8061523,0.1030273
1322,-10.75,-41.5625,-186.5625,-0.3823242,0.5507813,0.3125,0.2685547,-0.8061523,0.1030273
1323,-16,-37.9375,-190.8125,-0.4418945,0.5161133,0.3041992,0.3032227,-0.8007813,0.09521484
1324,-20.0625,-32.375,-193.75,-0.4697266,0.512207,0.3476563,0.3164063,-0.7880859,0.08984375
1325,-22.4375,-26.1875,-195.3125,-0.5649414,0.4736328,0.3637695,0.3164063,-0.7880859,0.08984375
1326,-24.9375,-20.75,-194.8125,-0.652832,0.5239258,0.3994141,0.3325195,-0.793457,0.1030273
1327,-29.0625,-14.5,-194,-0.7285156,0.4736328,0.3637695,0.3325195,-0.793457,0.1030273
1328,-34.3125,-9.625,-191.375,-0.7763672,0.4736328,0.3950195,0.340332,-0.7705078,0.07666016
1329,-43.375,-4.5625,-190.0625,-0.7841797,0.4350586,0.3754883,0.3618164,-0.7626953,0.07958984
1330,-48.625,-0.25,-187.25,-0.8876953,0.3540039,0.4941406,0.3618164,-0.7626953,0.07958984
1331,-47.5,2,-183,-0.9672852,0.2958984,0.5532227,0.3886719,-0.7368164,0.07958984
1332,-41.4375,4.0625,-177.375,-1.026855,0.2573242,0.5571289,0.3886719,-0.7368164,0.07958984
1333,-35.0625,5.25,-171.625,-1.050781,0.21875,0.5888672,0.394043,-0.7319336,0.07666016
1334,-28.25,7.125,-165.25,-1.102539,0.1875,0.6049805,0.4204102,-0.7241211,0.06640625
1335,-19.5625,10.8125,-157.5,-1.138184,0.1796875,0.5493164,0.4204102,-0.7241211,0.06640625
1336,-17.625,13.3125,-150.125,-1.198242,0.1645508,0.5019531,0.4418945,-0.7089844,0.06640625
1337,-16.875,13.3125,-142.875,-1.261719,0.1762695,0.5136719,0.4394531,-0.6987305,0.06884766
1338,-16.625,13.25,-134.6875,-1.321289,0.1953125,0.4941406,0.4394531,-0.6987305,0.06884766
1339,-18.125,12.8125,-125.75,-1.393066,0.203125,0.4902344,0.4658203,-0.6806641,0.07421875
1340,-17.9375,10.3125,-115.25,-1.269531,0.2148438,0.5297852,0.4658203,-0.6806641,0.07421875
1341,-17.3125,10.3125,-108.3125,-1.357422,0.1723633,0.5219727,0.4765625,-0.6757813,0.06884766
1342,-15.125,9,-100.6875,-1.349121,0.1489258,0.4863281,0.4794922,-0.6679688,0.06347656
1343,-13.625,9.125,-96,-1.373047,0.09863281,0.5097656,0.4794922,-0.6679688,0.06347656
1344,-11.6875,9.875,-92.5625,-1.38916,0.04443359,0.4267578,0.4951172,-0.6601563,0.07128906
1345,-10,11.4375,-91.375,-1.420898,0.06787109,0.4824219,0.4951172,-0.6601563,0.07128906
1346,-9.375,14,-91.875,-1.464844,0.04443359,0.4389648,0.4951172,-0.6601563,0.07128906
1347,-9.375,18.0625,-95,-1.587891,0.04833984,0.4111328,0.5004883,-0.6396484,0.07128906
1349,-7.8125,20.1875,-98.9375,-1.580078,0.07177734,0.4545898,0.5004883,-0.6396484,0.07128906
1350,-7.8125,23.25,-105.0625,-1.691406,0.06396484,0.4780273,0.5004883,-0.6396484,0.07128906
1351,-9.4375,23.0625,-109.75,-1.66748,0.09863281,0.3637695,0.5166016,-0.6323242,0.06640625
1352,-12.0625,21.3125,-112.3125,-1.62793,0.06396484,0.2885742,0.5166016,-0.6323242,0.06640625
1353,-9.625,19.625,-115.0625,-1.496582,0.02148438,0.3476563,0.5166016,-0.6323242,0.06640625
1354,-2.5625,20,-115.8125,-1.38916,-0.004882813,0.3637695,0.5166016,-0.6323242,0.06640625
1355,9.0625,20.0625,-118.5625,-1.373047,-0.06689453,0.3676758,0.5405273,-0.6040039,0.07128906
1356,24.1875,19.875,-119.5,-1.353027,-0.05126953,0.3476563,0.5405273,-0.6040039,0.07128906
1357,36.9375,19.5,-119.3125,-1.333496,0.001953125,0.3041992,0.5405273,-0.6040039,0.07128906
1358,43.875,19,-118.4375,-1.293457,0.04443359,0.2807617,0.5458984,-0.5961914,0.07666016
1359,45.8125,18.75,-116.5,-1.261719,0.1025391,0.2646484,0.5458984,-0.5961914,0.07666016
1360,43.5,18.25,-112.6875,-1.217773,0.1567383,0.284668,0.5458984,-0.5961914,0.07666016
1361,38.875,17.625,-108.6875,-1.174316,0.1567383,0.2685547,0.5751953,-0.5732422,0.07666016
1362,33.9375,17.5625,-104.6875,-1.138184,0.1762695,0.2211914,0.5751953,-0.5732422,0.07666016
1363,28,17.75,-100.0625,-1.118652,0.1645508,0.2250977,0.5751953,-0.5732422,0.07666016
1364,24,17.4375,-95.6875,-1.0625,0.1489258,0.2529297,0.5888672,-0.550293,0.1030273
1365,23.125,16.0625,-90.625,-1.08252,0.137207,0.2490234,0.5888672,-0.550293,0.1030273
1366,24.375,14.8125,-84.8125,-1.030762,0.1298828,0.2373047,0.5966797,-0.5551758,0.1054688
1367,24.8125,13.5625,-79.1875,-1.00293,0.1220703,0.2373047,0.5966797,-0.5551758,0.1054688
1368,25.375,11.75,-73.875,-0.9511719,0.1142578,0.2451172,0.5913086,-0.5400391,0.1030273
1369,25.9375,9.9375,-68.3125,-0.8955078,0.1411133,0.2529297,0.5966797,-0.534668,0.1054688
1370,26.125,8.4375,-63.125,-0.8637695,0.1181641,0.2294922,0.5966797,-0.534668,0.1054688
1371,26.4375,7.375,-58.375,-0.8081055,0.08349609,0.2055664,0.5966797,-0.5273438,0.09521484
1372,26.75,7,-54.5,-0.7680664,0.08349609,0.1938477,0.5966797,-0.5322266,0.1083984
1373,27.8125,7.25,-50.8125,-0.7602539,0.07177734,0.1777344,0.5966797,-0.5322266,0.1083984
1374,29.375,8.0625,-48.125,-0.6923828,0.02929688,0.2016602,0.6074219,-0.5146484,0.1083984
1375,30.875,8.0625,-46.25,-0.6767578,0.02929688,0.2211914,0.6074219,-0.5146484,0.1083984
1376,31.75,9.0625,-44.6875,-0.652832,0.04101563,0.1899414,0.6152344,-0.5195313,0.1030273
1377,30.875,10,-43.375,-0.6210938,0.05615234,0.2412109,0.6152344,-0.5068359,0.1108398
1378,28.6875,11.4375,-43.4375,-0.6289063,0.05224609,0.2094727,0.6152344,-0.5068359,0.1108398
1379,25.5,13.25,-43.25,-0.6328125,0.07568359,0.2016602,0.6181641,-0.5092773,0.1137695
1380,22.125,14.8125,-43.4375,-0.640625,0.06396484,0.2451172,0.6181641,-0.5092773,0.1137695
1381,19.125,16.4375,-43.625,-0.6884766,0.06396484,0.2729492,0.6098633,-0.5068359,0.1162109
1382,16.8125,17.6875,-43.625,-0.7124023,0.06396484,0.2729492,0.6259766,-0.4990234,0.1240234
1383,16.3125,18.375,-44.25,-0.7202148,0.04101563,0.3164063,0.6259766,-0.4990234,0.1240234
1384,19.9375,18.625,-44.375,-0.7402344,0.005859375,0.3320313,0.6259766,-0.4990234,0.1293945
1385,25.0625,18.75,-44.8125,-0.7524414,-0.01660156,0.3476563,0.6259766,-0.4941406,0.121582
1386,29.9375,19.3125,-44.6875,-0.7441406,0.009765625,0.3398438,0.6259766,-0.4941406,0.121582
1387,33.0625,19.75,-43.5625,-0.7641602,0.02148438,0.3793945,0.6313477,-0.4838867,0.1186523
1388,35.3125,20.4375,-43,-0.6923828,0.02929688,0.3911133,0.6313477,-0.4838867,0.1186523
1389,36.8125,20.625,-42.0625,-0.7441406,-0.01660156,0.3994141,0.6313477,-0.480957,0.1318359
1390,38.9375,20.6875,-41.5,-0.7163086,-0.0009765625,0.4545898,0.6342773,-0.4760742,0.1425781
1391,39.4375,20.9375,-40.3125,-0.7402344,0.02539063,0.4150391,0.6342773,-0.4760742,0.1425781
1392,38.6875,21.1875,-39.875,-0.6884766,0.02929688,0.4545898,0.6313477,-0.4838867,0.1401367
1393,39.1875,22.1875,-39.1875,-0.7202148,0.02929688,0.3598633,0.6313477,-0.4838867,0.1401367
1394,40,22.625,-38.5,-0.7524414,0.02148438,0.5058594,0.6342773,-0.4736328,0.1450195
1395,41.1875,22.8125,-37.5,-0.8276367,0.02539063,0.5136719,0.6396484,-0.4736328,0.1450195
1396,42.9375,22.4375,-36.5,-0.8320313,0.01757813,0.5097656,0.6396484,-0.4736328,0.1450195
1397,44.375,21.1875,-35.5,-0.8398438,0.02148438,0.5454102,0.6474609,-0.4736328,0.1425781
1398,45.8125,19.625,-33.9375,-0.8916016,0.04443359,0.5415039,0.6420898,-0.4658203,0.1582031
1399,48.625,18,-31.75,-0.8515625,0.03710938,0.5375977,0.6420898,-0.4658203,0.1582031
1400,51.875,16.6875,-29.4375,-0.855957,0.02929688,0.5375977,0.6450195,-0.4609375,0.1557617
1401,53.5,15.875,-27.125,-0.9194336,0.04101563,0.5336914,0.6450195,-0.4609375,0.1557617
1402,52.8125,14.6875,-24.1875,-0.9311523,0.07177734,0.4980469,0.6420898,-0.453125,0.1582031
1403,49.5,14.25,-20.75,-0.9511719,0.07958984,0.5258789,0.6396484,-0.4633789,0.1611328
1404,45,13.9375,-17.75,-0.9951172,0.09472656,0.4741211,0.6396484,-0.4633789,0.1611328
1405,40.4375,13.9375,-14.5,-1.094727,0.09472656,0.4741211,0.6420898,-0.4633789,0.1713867
1406,34.25,15.25,-11.3125,-1.22168,0.1298828,0.4306641,0.6420898,-0.4633789,0.1713867
1407,26.75,15.75,-8.875,-1.361328,0.1567383,0.4780273,0.6474609,-0.4453125,0.1791992
1408,18.375,13.0625,-6.8125,-1.484375,0.1411133,0.4824219,0.652832,-0.4428711,0.1611328
1409,9.3125,9.5,-3.8125,-1.512207,0.1835938,0.5097656,0.652832,-0.4428711,0.1611328
1410,1.625,4.8125,-0.6875,-1.52832,0.1875,0.4545898,0.6367188,-0.4477539,0.1660156
1411,-4.0625,0.1875,3.375,-1.504395,0.1142578,0.4506836,0.652832,-0.4477539,0.1743164
1412,-6.4375,-4.1875,7.8125,-1.476563,0.1103516,0.4228516,0.652832,-0.4477539,0.1743164
1414,-9,-7.0625,13.8125,-1.440918,0.09863281,0.4228516,0.6499023,-0.4633789,0.1743164
1415,-11.9375,-10.625,21,-1.440918,0.09082031,0.4228516,0.6499023,-0.4633789,0.1743164
1416,-17.8125,-13.6875,27.875,-1.413086,0.09863281,0.3637695,0.6450195,-0.4555664,0.1713867
1417,-24.25,-15.1875,35.125,-1.396973,0.09472656,0.3041992,0.6420898,-0.4736328,0.1689453
1418,-31.3125,-16.25,42.3125,-1.333496,0.05224609,0.284668,0.6420898,-0.4736328,0.1689453
1419,-38.9375,-17.375,47.875,-1.361328,0.05224609,0.2607422,0.6367188,-0.4736328,0.1689453
1420,-46.125,-18.375,53.25,-1.353027,0.01757813,0.2451172,0.6367188,-0.4736328,0.1689453
1421,-51.5625,-19.125,57.625,-1.345215,0.02929688,0.2529297,0.6342773,-0.4658203,0.1635742
1422,-57.375,-19.5625,60.8125,-1.317383,-0.01660156,0.2133789,0.6367188,-0.4682617,0.1582031
1423,-64.5625,-20.375,63.0625,-1.30957,0.001953125,0.2211914,0.6367188,-0.4682617,0.1582031
1424,-73.5,-20.875,64.875,-1.30127,0.01367188,0.1816406,0.6367188,-0.4863281,0.152832
1425,-84.125,-21.0625,66.5625,-1.277832,-0.004882813,0.1542969,0.6420898,-0.4707031,0.1450195
1426,-93.8125,-21.875,67.9375,-1.25,-0.05126953,0.1420898,0.6420898,-0.4707031,0.1450195
1427,-101.8125,-22.9375,69.5,-1.189941,-0.04736328,0.1503906,0.6342773,-0.4760742,0.152832
1428,-106.6875,-24.125,70.6875,-1.138184,-0.07470703,0.1582031,0.6342773,-0.4760742,0.152832
1429,-110.3125,-25.625,71.9375,-1.106445,-0.1054688,0.1699219,0.6367188,-0.4912109,0.137207
1430,-113,-27.125,73.6875,-1.015137,-0.1171875,0.1777344,0.6289063,-0.496582,0.1450195
1431,-113.8125,-28.75,74.8125,-0.9829102,-0.1401367,0.1977539,0.6289063,-0.496582,0.1450195
1432,-112.375,-30.3125,75.5,-0.9033203,-0.1557617,0.1977539,0.6289063,-0.5043945,0.1269531
1433,-109.0625,-31.5,76.375,-0.8676758,-0.1635742,0.1899414,0.6289063,-0.5043945,0.1269531
1434,-106.125,-32.1875,76.9375,-0.7919922,-0.1943359,0.2211914,0.6181641,-0.5043945,0.1240234
1435,-104.5,-32.875,77.4375,-0.7441406,-0.1401367,0.1938477,0.6152344,-0.5068359,0.1054688
1436,-105.0625,-32.875,77.5,-0.7324219,-0.175293,0.2172852,0.6152344,-0.5068359,0.1054688
1437,-107.1875,-33.125,77.1875,-0.7246094,-0.1132813,0.2211914,0.6181641,-0.5146484,0.1005859
1438,-108.5,-32.75,76.9375,-0.6845703,-0.1362305,0.2294922,0.6098633,-0.5195313,0.1005859
1439,-109.3125,-32.1875,75.75,-0.668457,-0.1557617,0.2133789,0.6098633,-0.5195313,0.1005859
1440,-109.25,-31.6875,75,-0.668457,-0.1015625,0.2412109,0.6074219,-0.5170898,0.08203125
1441,-107.3125,-31.3125,73.625,-0.7006836,-0.1210938,0.2729492,0.6074219,-0.5170898,0.08203125
1442,-104.625,-31.625,71.8125,-0.7202148,-0.1210938,0.284668,0.6020508,-0.5219727,0.08203125
1443,-100.9375,-32.25,69.625,-0.7402344,-0.1289063,0.284668,0.5888672,-0.5273438,0.06103516
1444,-96.75,-33.8125,67.125,-0.7602539,-0.1289063,0.3515625,0.5888672,-0.5273438,0.06103516
1445,-90.0625,-35,64.875,-0.7563477,-0.1328125,0.328125,0.5913086,-0.5322266,0.06884766
1446,-82.8125,-36.9375,62.3125,-0.7919922,-0.125,0.3398438,0.5913086,-0.5322266,0.06884766
1447,-74.625,-38.9375,59.375,-0.8237305,-0.09765625,0.3793945,0.5805664,-0.5322266,0.06347656
1448,-67.4375,-41.625,57.5,-0.8598633,-0.08984375,0.3793945,0.5888672,-0.534668,0.05029297
1449,-62.1875,-44.0625,55.625,-0.8359375,-0.07470703,0.3515625,0.5888672,-0.534668,0.05029297
1450,-57.1875,-46.625,54.0625,-0.8598633,-0.04736328,0.371582,0.5727539,-0.5400391,0.05810547
1451,-52.4375,-49.625,53.5,-0.8598633,-0.03613281,0.3833008,0.5805664,-0.5424805,0.03222656
1452,-47.9375,-52.5,53.375,-0.8837891,-0.03222656,0.3793945,0.5805664,-0.5424805,0.03222656
1453,-43.0625,-54.6875,53.25,-0.8754883,-0.06689453,0.3833008,0.5595703,-0.5527344,0.02148438
1454,-35.3125,-57.1875,52.6875,-0.8837891,-0.04003906,0.4228516,0.5595703,-0.5527344,0.02148438
1455,-25.25,-59.1875,53.375,-0.855957,-0.03613281,0.387207,0.5595703,-0.5400391,0.02685547
1456,-17.5,-61.125,54.625,-0.9550781,0.001953125,0.3793945,0.5698242,-0.5449219,0.01904297
1457,-11.75,-61.6875,54.5,-0.9511719,-0.0009765625,0.4072266,0.5698242,-0.5449219,0.01904297
1458,-5.5625,-62.75,55,-0.9790039,0.02539063,0.3911133,0.5512695,-0.5551758,0.02148438
1459,-0.625,-64.5625,55.5,-1.070801,0.07177734,0.4306641,0.5512695,-0.5551758,0.02148438
1460,0.5625,-66.25,55.875,-1.070801,0.08349609,0.4306641,0.5380859,-0.5629883,0.002929688
1461,1.5,-67.9375,56.1875,-1.106445,0.1181641,0.387207,0.5405273,-0.5708008,-0.006835938
1462,-0.1875,-67.5,56.4375,-1.134277,0.06005859,0.3637695,0.5405273,-0.5708008,-0.006835938
1463,2.875,-67.5,56.4375,-1.122559,0.03320313,0.387207,0.5351563,-0.5683594,-0.006835938
1464,16.8125,-67.3125,57.0625,-1.126465,0.02929688,0.3911133,0.5273438,-0.5708008,-0.01220703
1465,10.25,-65.3125,58.5625,-1.010742,0.1181641,0.3793945,0.5273438,-0.5708008,-0.01220703
1466,1,-61.375,52.8125,-0.9873047,0.1142578,0.4033203,0.5244141,-0.5913086,-0.01513672
1467,-5.1875,-57.8125,47.0625,-1.114258,0.009765625,0.4741211,0.5244141,-0.5913086,-0.01513672
1468,-2.8125,-50.25,43.0625,-1.202148,0.001953125,0.4663086,0.5166016,-0.5810547,-0.02001953
1469,-4.375,-45,35.6875,-1.25,-0.01660156,0.4663086,0.5058594,-0.59375,-0.02783203
1470,-2.5,-40.375,28.875,-1.257813,-0.0009765625,0.5058594,0.5058594,-0.59375,-0.02783203
1471,3.625,-35.875,25.1875,-1.217773,-0.03222656,0.5058594,0.4951172,-0.5859375,-0.02783203
1472,11.4375,-31.1875,21.125,-1.138184,-0.06689453,0.4306641,0.4951172,-0.5859375,-0.02783203
1473,20.1875,-26.0625,16.6875,-1.106445,-0.0009765625,0.4228516,0.5058594,-0.5888672,-0.02539063
1474,23.875,-20,12,-1.090332,-0.0009765625,0.387207,0.4873047,-0.59375,-0.03320313
